ax,ay,az,gx,gy,gz,time
489,-509,-441,2768,-556,15832,0.001803
535,-516,-452,2888,-576,15840,0.004631
589,-516,-451,2812,-556,15740,0.00735
778,-492,-398,2916,-420,15768,0.020295
772,-438,-403,2968,-436,15824,0.022999
770,-376,-325,2952,-408,16196,0.035902
713,-355,-330,2980,-396,16320,0.038625
680,-389,-337,2972,-356,16260,0.041347
363,-364,-206,2908,-360,16488,0.054282
280,-414,-221,2952,-388,16540,0.057005
37,-657,-258,2732,-480,16436,0.069913
50,-671,-275,2656,-532,16488,0.072637
-14,-796,-285,2640,-540,16544,0.075359
-160,-881,-350,2560,-480,16184,0.08831
-133,-832,-376,2492,-500,16032,0.091047
-90,-711,-496,2752,-480,15788,0.103967
-78,-736,-457,2752,-516,15848,0.106703
-35,-679,-490,2756,-496,15620,0.109445
174,-574,-478,2912,-452,15672,0.122376
189,-606,-480,2920,-416,15640,0.1251
486,-565,-459,2972,-384,15688,0.138047
512,-541,-423,3032,-392,15788,0.140771
536,-523,-446,3040,-372,15656,0.14349
655,-387,-326,2964,-344,15844,0.156427
670,-386,-339,2940,-368,15888,0.15915
642,-233,-368,2704,-380,15984,0.172075
630,-289,-407,2676,-376,16068,0.174799
633,-258,-418,2708,-336,16024,0.177527
465,-489,-470,2732,-240,16360,0.190466
422,-570,-467,2876,-176,16232,0.193189
298,-724,-385,3060,-164,16216,0.206102
323,-740,-353,2992,-180,16020,0.208823
325,-700,-328,2936,-172,16068,0.211553
94,-677,-324,2736,-308,16160,0.224462
70,-688,-327,2856,-272,16240,0.227181
-82,-628,-292,2920,-240,16188,0.24013
-108,-599,-275,2820,-340,16328,0.242875
-135,-597,-288,2868,-356,16264,0.245611
-195,-686,-242,2848,-348,16072,0.258584
-159,-723,-223,2788,-368,16100,0.261321
-54,-810,-335,2708,-392,15808,0.274246
-25,-880,-366,2772,-380,15892,0.276982
-29,-1079,-316,2964,-320,15808,0.289938
13,-1077,-263,2936,-220,15788,0.292677
9,-1089,-270,2968,-260,15732,0.295404
92,-778,-196,2984,-320,15720,0.308308
115,-729,-174,2916,-392,15800,0.31103
131,-510,-208,2540,-592,15728,0.32398
146,-507,-272,2472,-580,15764,0.3267
162,-534,-307,2368,-512,15792,0.329421
138,-658,-505,2436,-364,16000,0.342371
130,-689,-495,2544,-400,16088,0.345093
216,-909,-508,2920,-292,15932,0.357991
220,-913,-479,3028,-292,15792,0.360711
242,-901,-463,3064,-332,15816,0.363434
285,-760,-300,3188,-316,15728,0.376381
243,-737,-282,3244,-288,15704,0.379101
90,-410,-122,3012,-304,15852,0.392003
105,-319,-102,2940,-336,16028,0.394725
49,-284,-82,2880,-368,16016,0.397445
-124,-236,-117,2596,-520,16180,0.410342
-186,-180,-133,2468,-484,16108,0.41308
-203,-324,-286,2192,-456,16124,0.425995
-242,-419,-380,2324,-404,16216,0.428734
-195,-500,-378,2304,-388,16112,0.431473
-159,-742,-465,2604,-360,15832,0.444442
-172,-705,-433,2652,-400,15912,0.44718
16,-652,-449,2936,-256,15624,0.460161
72,-605,-390,3024,-264,15512,0.462892
123,-623,-361,3044,-320,15524,0.465611
361,-365,-193,3040,-284,15588,0.478578
396,-316,-173,3008,-340,15556,0.4813
357,-173,-111,2924,-288,15936,0.494275
350,-124,-103,2868,-312,16024,0.496996
293,-139,-61,2872,-388,16136,0.499717
142,-199,-54,2596,-472,16464,0.512678
86,-248,-92,2532,-444,16492,0.515404
-196,-635,-149,2384,-528,16276,0.528354
-251,-627,-162,2356,-552,16284,0.531092
-246,-710,-199,2344,-416,16052,0.533831
-270,-826,-373,2392,-564,15716,0.54676
-262,-820,-381,2512,-528,15684,0.549501
-156,-822,-400,2780,-432,15388,0.562445
-114,-734,-429,2780,-352,15360,0.565181
150,-562,-429,2936,-456,15628,0.578093
217,-539,-394,2992,-432,15568,0.580815
252,-568,-367,2976,-408,15660,0.583542
397,-437,-285,2924,-488,15920,0.596465
415,-419,-281,2824,-488,15952,0.599186
378,-476,-285,2612,-532,16444,0.612087
314,-521,-304,2672,-444,16560,0.614807
288,-575,-314,2572,-580,16632,0.617537
31,-1011,-393,2612,-436,16624,0.630442
-37,-1074,-380,2640,-460,16540,0.633164
-221,-1240,-422,2824,-396,16324,0.646112
-250,-1250,-441,2864,-448,16192,0.64885
-235,-1179,-398,2864,-480,16108,0.651594
-84,-963,-461,2904,-432,15736,0.664503
-64,-935,-453,2900,-528,15800,0.667241
82,-972,-454,3108,-324,15668,0.680213
109,-975,-449,3156,-312,15852,0.682933
123,-996,-410,3168,-288,15780,0.685656
128,-1076,-278,3056,-296,16220,0.698576
93,-1078,-286,3144,-384,16264,0.701296
-159,-1105,-198,3016,-356,16332,0.714223
-170,-1155,-221,2964,-444,16396,0.716962
-375,-1169,-158,2900,-492,16400,0.729914
-382,-1242,-122,2900,-524,16348,0.732654
-420,-1194,-156,2952,-524,16332,0.735394
-373,-1240,-137,2896,-560,15968,0.748341
-361,-1230,-122,2820,-564,15912,0.75108
-145,-1188,-167,2820,-608,15448,0.764028
-77,-1146,-232,2912,-648,15424,0.766771
-9,-1145,-175,2888,-588,15568,0.769509
122,-1198,-121,3036,-520,15644,0.782425
158,-1258,-121,3108,-464,15844,0.785147
265,-1438,-14,3000,-656,16144,0.798091
240,-1460,-16,2896,-656,16208,0.800815
254,-1986,-108,2704,-648,16380,0.81377
283,-2136,-146,2600,-592,16388,0.81649
290,-2286,-140,2704,-640,16412,0.81921
384,-2784,-259,2832,-624,16116,0.832157
392,-2839,-269,2896,-708,15992,0.834885
432,-2615,-328,3024,-636,15784,0.847803
506,-2654,-339,3120,-616,15696,0.850534
498,-2508,-322,3136,-640,15808,0.853255
704,-2463,-253,3276,-560,15972,0.866186
819,-2534,-256,3264,-644,15912,0.868915
1056,-3011,-210,3332,-632,16336,0.881825
1111,-3208,-215,3412,-552,16404,0.884557
1105,-4162,-115,3712,-356,16812,0.897453
1126,-4341,-49,3676,-368,16780,0.900172
1108,-4582,18,3784,-236,16644,0.9029
1147,-5636,176,3812,-364,16360,0.915784
1122,-5735,234,3768,-388,15976,0.91849
1300,-5905,292,3692,-520,15048,0.931434
1377,-5750,280,3588,-636,14888,0.934137
1418,-5586,274,3544,-728,14676,0.93684
1824,-4522,114,3160,-812,14428,0.949744
1870,-4271,63,3040,-904,14368,0.952448
2161,-3292,-274,3076,-804,14864,0.965335
2116,-3089,-390,3100,-712,15016,0.968058
2030,-2231,-626,3432,-420,15836,0.980957
1927,-2099,-656,3668,-288,16000,0.983678
1839,-2033,-644,3812,-192,16264,0.986404
1246,-1897,-654,4320,16,16936,0.999312
1125,-2037,-574,4344,84,17068,1.002
619,-2356,-350,4564,176,17156,1.014905
528,-2486,-335,4544,148,17024,1.017611
460,-2629,-291,4548,100,17088,1.020315
245,-3138,-120,4288,52,16528,1.033201
248,-3280,-120,4280,-52,16292,1.035912
385,-3792,-102,4268,4,15752,1.048838
396,-3836,-121,4272,16,15556,1.051552
438,-3860,-122,4244,-32,15544,1.054259
597,-3577,-115,4372,-120,15340,1.067157
657,-3458,-126,4320,-248,15128,1.069886
1207,-3618,-221,4424,-168,16080,1.082784
1346,-3968,-238,4548,-144,16472,1.085504
1706,-6381,-87,4988,12,16924,1.098404
1706,-6822,-23,5020,28,16656,1.10111
1728,-7125,12,5092,76,16432,1.103818
1640,-7465,214,5180,192,15280,1.116718
1620,-7325,184,5148,72,15056,1.119408
1602,-6086,223,5176,-260,14556,1.132342
1595,-5768,216,5172,-296,14388,1.135049
1615,-5432,207,5212,-288,14536,1.137756
1547,-4146,217,5072,-264,15080,1.150669
1502,-3862,113,5004,-252,15048,1.153377
1303,-2991,-9,4880,-8,15912,1.166282
1305,-2932,-45,4948,-4,16016,1.169005
1300,-2912,-94,4996,48,16392,1.171727
1115,-3792,-235,5412,52,17868,1.184649
1041,-4103,-242,5516,48,18112,1.187352
620,-5639,-150,6284,448,18588,1.200294
430,-5945,-83,6420,428,18732,1.202998
221,-6316,-34,6604,572,18868,1.2057
-1152,-7646,538,7144,988,18508,1.218608
-1448,-7798,687,7180,1068,18208,1.221315
-2706,-7651,1285,7136,900,16412,1.234251
-2830,-7478,1363,6952,716,15956,1.236957
-3401,-6303,1658,6348,76,14796,1.249839
-3491,-6018,1680,6132,-120,14432,1.252554
-3460,-5763,1670,5952,-236,14108,1.255276
-3264,-4454,1298,5152,-576,13576,1.26822
-3184,-4292,1216,5052,-676,13616,1.270946
-2581,-4159,596,5184,-784,14132,1.283847
-2486,-4271,509,5316,-784,14384,1.286576
-1950,-4843,101,5864,-708,14500,1.299497
-1855,-4975,38,6032,-636,14512,1.30222
-1835,-5138,-18,6164,-560,14564,1.304946
-1538,-5641,-106,6628,-584,14228,1.317913
-1474,-5579,-118,6736,-544,14100,1.320654
-1094,-5289,-81,7124,-608,13588,1.333625
-1037,-5256,-52,7128,-564,13732,1.336365
-671,-5080,7,7084,-700,13552,1.349287
-582,-5052,4,7096,-752,13464,1.351997
-512,-5029,17,7060,-752,13428,1.354718
-123,-4471,-43,6980,-704,13352,1.367637
-48,-4391,-36,7048,-852,13380,1.370376
362,-4002,-103,7020,-952,13544,1.38333
390,-3859,-119,7076,-944,13720,1.38605
416,-3734,-170,7036,-940,13732,1.388773
466,-3504,-359,7140,-804,14268,1.401732
485,-3494,-403,7104,-740,14248,1.404454
383,-3663,-525,7380,-532,14604,1.417395
407,-3702,-500,7352,-452,14420,1.420119
401,-3746,-516,7532,-432,14356,1.42284
516,-4224,-513,7804,-580,14408,1.4358
497,-4348,-506,7856,-548,14500,1.438529
663,-4343,-387,8112,-416,13732,1.451462
645,-4298,-337,8140,-412,13516,1.454182
681,-4220,-325,8160,-376,13424,1.456914
983,-4072,-213,8040,-408,13300,1.469807
1044,-4025,-207,8136,-408,13340,1.472537
1468,-4099,-215,8088,-484,13052,1.485459
1511,-4052,-176,8048,-484,13144,1.488181
1780,-3474,-173,8164,-436,12720,1.501075
1817,-3281,-199,8208,-452,12688,1.503804
1823,-3042,-162,8208,-420,12516,1.506534
1913,-1794,-80,8396,-500,13216,1.519448
1933,-1569,-76,8352,-384,13476,1.52217
1783,-1079,-59,8216,-412,14232,1.535087
1712,-1043,-67,8244,-304,14484,1.537808
1201,-1145,-61,8328,-80,15004,1.550725
1091,-1244,-25,8228,-88,15004,1.553445
958,-1254,-10,8328,-136,14884,1.556167
444,-1433,-18,8132,-288,14680,1.569095
399,-1446,-24,7968,-300,14468,1.571818
441,-1699,-192,7848,-576,14024,1.584719
473,-1741,-247,7924,-624,13996,1.587442
516,-1803,-286,7908,-652,13948,1.590164
594,-1646,-526,8016,-364,13368,1.603108
591,-1449,-567,8048,-332,13416,1.605832
327,-237,-625,8360,-156,13400,1.618784
279,31,-635,8548,-156,13548,1.621504
172,308,-630,8500,-16,13448,1.624208
46,1177,-522,8676,160,14000,1.637107
108,1144,-460,8608,24,14420,1.639797
442,-569,-343,8552,-52,15368,1.652693
503,-1082,-324,8568,12,15440,1.655417
564,-1649,-276,8516,24,15488,1.65812
638,-3394,-138,8532,84,14588,1.670996
660,-3518,-94,8504,-44,14296,1.6737
505,-2965,-73,8544,-204,13756,1.686599
441,-2733,-59,8448,-244,13832,1.689319
425,-2545,-58,8468,-352,13812,1.692041
211,-2001,-92,8332,-400,13996,1.704987
173,-1891,-58,8304,-420,14004,1.707708
-88,-1460,-209,8364,-356,14248,1.720644
-134,-1367,-228,8304,-404,14388,1.723383
-197,-1333,-241,8292,-436,14408,1.72612
-445,-1328,-308,8684,-336,14332,1.739049
-501,-1351,-291,8692,-380,14308,1.741793
-529,-1258,-216,8656,-352,13904,1.754732
-475,-1268,-178,8692,-344,13756,1.757471
43,-1662,-238,8676,-444,13864,1.770428
187,-1813,-221,8680,-468,13892,1.773151
283,-2033,-230,8748,-496,13944,1.775882
300,-2745,-123,8856,-360,14272,1.788842
202,-2798,-102,8732,-316,14228,1.791574
-91,-2681,-92,8808,-268,13980,1.804491
-172,-2625,-37,8768,-308,13684,1.807229
-193,-2555,-73,8824,-352,13724,1.809965
-204,-2221,-6,8828,-472,13160,1.822881
-182,-2074,45,8808,-584,13036,1.825621
-50,-1300,-41,8628,-580,12904,1.838579
-68,-1087,-53,8568,-588,13096,1.841316
-48,-920,-110,8540,-540,13100,1.844052
-66,-607,-224,8712,-496,13728,1.857022
-156,-610,-246,8756,-404,13744,1.859766
-246,-605,-236,9044,-204,13792,1.872713
-303,-607,-172,9076,-188,13812,1.875453
-233,-665,-20,9148,-308,13504,1.888445
-167,-735,22,9044,-372,13452,1.891182
-96,-814,62,9084,-420,13448,1.893913
301,-805,175,9008,-452,12980,1.906843
382,-685,249,8952,-540,12904,1.909558
517,-354,220,8604,-552,13072,1.922475
562,-286,166,8584,-500,13124,1.925181
543,-142,164,8616,-488,13088,1.927897
373,254,155,8608,-428,13544,1.940807
297,245,176,8600,-368,13752,1.943493
147,336,164,8624,-348,13852,1.956416
168,352,165,8736,-388,13824,1.959103
123,387,185,8692,-392,13888,1.961793
195,220,215,8688,-424,14132,1.974696
194,141,210,8720,-540,14264,1.977384
73,-246,340,8836,-436,14308,1.990267
8,-245,338,8812,-392,14196,1.992973
-64,-277,375,8784,-464,14096,1.995679
-348,-46,502,8616,-520,13972,2.008629
-392,-53,504,8492,-656,13804,2.011348
-570,440,420,7992,-920,13364,2.024293
-595,541,371,7880,-968,13168,2.026997
-559,625,343,7780,-992,13280,2.0297
-460,871,31,7636,-928,13048,2.042626
-413,863,-31,7584,-912,13116,2.045331
-212,887,-384,7824,-820,12752,2.058231
-140,922,-410,7852,-740,12768,2.060955
-76,972,-480,7984,-748,12672,2.063678
419,1133,-624,8292,-720,12508,2.076594
593,1240,-623,8408,-664,12444,2.079301
1215,1338,-606,8696,-568,13256,2.092208
1312,1337,-577,8748,-512,13404,2.094912
1389,1351,-527,8796,-388,13440,2.097619
1703,1200,-330,9060,-140,13804,2.11054
1685,1172,-241,9116,-64,14048,2.113244
1388,991,55,9052,-16,14540,2.126199
1306,974,171,8972,-16,14452,2.128897
1252,987,209,8972,8,14692,2.131588
851,1002,466,8684,-56,14604,2.144502
760,1068,535,8576,-168,14544,2.147192
550,1187,549,7876,-512,14228,2.160068
511,1236,541,7848,-568,14192,2.16276
465,1239,471,7736,-588,14160,2.165447
399,1405,220,7268,-768,13956,2.178319
357,1418,163,7224,-740,13988,2.180992
450,1588,-157,7148,-760,13476,2.193912
461,1655,-220,7188,-748,13440,2.196619
489,1764,-265,7236,-788,13276,2.199326
751,2412,-509,7428,-640,13104,2.212233
884,2515,-572,7484,-572,13276,2.21494
1328,2537,-554,7872,-468,14028,2.227847
1406,2486,-545,7972,-492,13988,2.230558
1477,2398,-554,8012,-408,14384,2.233262
1601,1857,-365,8236,-292,15060,2.246149
1573,1784,-276,8232,-244,15080,2.248865
1169,1423,-94,8072,-232,15436,2.261796
1064,1357,-35,8016,-224,15308,2.264501
947,1363,-2,7944,-256,15332,2.267208
394,1420,50,7740,-348,15200,2.2801
302,1444,12,7696,-372,15092,2.282793
-115,1795,12,7396,-548,14620,2.295737
-130,1846,-27,7324,-600,14464,2.298443
-152,1901,-44,7180,-624,14544,2.301165
-153,2049,-236,6836,-640,14032,2.314056
-124,2109,-288,6888,-684,14076,2.316784
156,2421,-481,6984,-648,13644,2.329698
244,2516,-543,6964,-608,13576,2.332408
333,2513,-572,6972,-756,13528,2.335113
740,2629,-642,6988,-800,14100,2.348
773,2661,-702,7004,-788,14184,2.350703
861,2576,-772,7092,-392,15008,2.363658
829,2496,-775,7156,-308,15204,2.366363
427,2015,-752,7124,-76,15792,2.379285
285,1829,-722,7244,-84,15852,2.381991
215,1740,-718,7196,-92,15952,2.384698
-406,1293,-619,7604,-56,15616,2.397631
-494,1218,-573,7760,16,15464,2.400351
-852,1154,-153,7888,-80,15112,2.41331
-949,1211,-75,7852,-88,15072,2.41603
-972,1281,-3,7780,-224,14812,2.418757
-1087,1599,173,6968,-572,14368,2.431695
-1118,1708,210,6808,-572,14404,2.434404
-1087,1884,103,6224,-804,14116,2.447335
-1097,1966,-4,6080,-808,14076,2.450041
-1055,2035,-51,5976,-852,14060,2.452766
-538,2030,-498,5480,-868,14040,2.465667
-382,1824,-640,5512,-904,14300,2.468393
244,541,-1133,6004,-584,15224,2.481348
317,244,-1167,6164,-496,15424,2.484051
383,-107,-1203,6328,-436,15400,2.48676
262,-1255,-1146,7152,308,15424,2.499715
196,-1392,-1085,7276,288,15184,2.502419
30,-1011,-633,7792,268,14208,2.515327
-14,-821,-538,7820,128,14068,2.518034
-19,-624,-454,7872,60,14000,2.520759
80,205,-38,7472,-164,13896,2.533743
101,364,41,7328,-220,13872,2.536447
88,824,68,6544,-380,14264,2.549368
33,908,4,6388,-420,14312,2.552055
20,981,-27,6308,-404,14324,2.554745
-320,1745,-136,6104,-496,14120,2.567628
-342,1942,-159,5932,-544,13920,2.570348
-354,2724,-382,5444,-912,14044,2.583272
-331,2835,-503,5408,-832,13964,2.585994
-260,2914,-538,5432,-972,14120,2.588717
137,2653,-958,5424,-908,14528,2.601693
278,2471,-1035,5436,-776,14532,2.604404
918,1555,-1175,5964,-580,14832,2.617285
1011,1362,-1172,6160,-508,14788,2.619991
1120,1179,-1163,6276,-468,14840,2.622699
1389,588,-1007,6464,-236,15052,2.635602
1373,517,-986,6584,-168,15220,2.638305
1170,520,-602,6712,-84,15508,2.651191
1103,577,-551,6680,-196,15392,2.653902
688,1179,-250,6220,-424,15512,2.666784
594,1358,-210,6060,-396,15416,2.66949
488,1446,-223,6024,-528,15604,2.672194
133,1890,-276,5440,-604,15752,2.685067
45,1844,-293,5272,-688,15812,2.687774
-242,1420,-539,5136,-528,16108,2.700674
-332,1255,-589,5212,-564,16104,2.703398
-380,1199,-665,5268,-520,15888,2.706119
-598,687,-789,5552,-396,15516,2.719064
-580,601,-791,5532,-396,15404,2.721792
-421,315,-795,5824,-508,14708,2.734744
-304,191,-831,5812,-500,14772,2.737464
-218,194,-798,5800,-520,14716,2.740184
292,27,-829,5788,-580,14352,2.75308
420,-28,-827,5800,-472,14188,2.755791
821,41,-822,5716,-496,14072,2.768747
893,165,-853,5724,-480,14228,2.771453
942,226,-849,5776,-540,14336,2.774156
1011,644,-860,5632,-448,14808,2.787097
960,723,-859,5568,-460,14920,2.789805
518,1188,-937,5324,-464,15204,2.802738
387,1289,-998,5320,-460,15276,2.805443
232,1373,-1021,5272,-488,15280,2.808151
-164,1843,-1256,5144,-444,15080,2.82103
-228,1941,-1342,5092,-464,15108,2.823756
-296,1987,-1527,5288,-360,14968,2.83669
-277,1946,-1560,5248,-348,15040,2.839416
-27,1760,-1643,5660,-280,14980,2.852353
41,1739,-1619,5828,-168,14852,2.855076
95,1682,-1620,5868,-128,14840,2.857784
400,1706,-1329,6300,-28,14928,2.870684
495,1761,-1305,6440,-24,15056,2.873392
665,1663,-860,6508,216,15516,2.886294
669,1646,-786,6424,184,15640,2.888981
696,1590,-723,6416,208,15712,2.891668
694,1594,-365,6144,164,15676,2.904608
623,1597,-291,6112,256,15760,2.907298
569,1870,-54,5748,-24,15580,2.920217
550,1949,-17,5580,-48,15536,2.922922
552,2002,2,5516,-156,15468,2.925627
448,2351,-42,4852,-308,15844,2.938568
417,2345,-79,4756,-332,15936,2.941273
118,2064,-276,4436,-372,16308,2.954173
-2,1972,-327,4432,-328,16408,2.956885
-43,1837,-364,4284,-316,16172,2.959608
-198,1131,-577,4404,-356,16088,2.97254
-181,1007,-644,4484,-428,16132,2.975259
-205,614,-692,4796,-436,15528,2.988167
-187,610,-695,4804,-404,15480,2.990897
-193,662,-685,4852,-380,15264,2.993619
-214,1078,-638,4724,-380,15036,3.006529
-203,1218,-639,4732,-388,15096,3.009253
-84,1621,-596,4672,-352,14928,3.022211
-50,1698,-602,4688,-408,15016,3.02492
11,1719,-626,4584,-416,15160,3.027644
172,1657,-650,4472,-340,15516,3.040593
199,1641,-667,4464,-332,15552,3.043297
314,1389,-725,4348,-220,15956,3.056255
349,1254,-712,4432,-216,16040,3.05896
354,1193,-758,4352,-260,16004,3.061667
394,818,-806,4264,-324,15888,3.074588
381,758,-829,4216,-308,15952,3.077293
330,626,-945,4296,-176,15712,3.090196
355,591,-925,4328,-168,15704,3.092911
327,556,-916,4448,-168,15776,3.095613
264,628,-899,4568,-80,15700,3.108501
280,701,-903,4664,-112,15720,3.111208
168,757,-774,4772,-72,15924,3.124119
112,736,-694,4800,28,15920,3.126823
120,776,-677,4804,52,15884,3.129512
47,690,-429,4708,8,15852,3.142442
78,656,-379,4608,-100,15948,3.145131
117,236,-307,4228,-140,15912,3.158075
179,101,-314,4176,-100,15864,3.160784
228,61,-334,4144,-28,15760,3.16349
399,-199,-407,4028,-184,15732,3.176377
410,-291,-461,3968,-156,15808,3.179099
456,-501,-629,3824,-160,15724,3.191998
474,-538,-661,3832,-112,15936,3.194718
452,-580,-730,4004,-76,15992,3.19744
378,-766,-802,4572,208,15924,3.210368
302,-838,-775,4728,184,16024,3.213072
250,-748,-508,5148,220,15752,3.226024
260,-744,-425,5160,152,15708,3.228729
211,-656,-350,5160,156,15736,3.231436
149,-329,-48,4996,0,15644,3.244343
182,-248,-16,4816,-56,15536,3.247048
39,-97,43,4336,-152,15576,3.259962
64,-68,35,4196,-208,15508,3.262667
15,-71,22,4012,-312,15576,3.265373
-62,-206,-246,3752,-456,15400,3.278299
-26,-229,-308,3652,-452,15248,3.28104
-41,-234,-349,3616,-460,15348,3.283784
68,-329,-622,3704,-468,15108,3.296732
133,-361,-656,3704,-508,15148,3.299454
383,-478,-841,3980,-412,15108,3.312343
375,-491,-856,4096,-304,15180,3.315066
471,-506,-797,4536,-176,15392,3.32798
472,-483,-749,4668,-108,15360,3.3307
423,-425,-716,4652,-168,15332,3.333427
369,-130,-494,4624,-132,15500,3.34637
338,-86,-467,4720,-192,15244,3.349094
207,130,-254,4388,-280,15372,3.362006
186,200,-261,4216,-328,15384,3.364712
103,234,-238,4132,-288,15392,3.367416
46,473,-182,3748,-352,14936,3.380325
62,593,-229,3680,-316,14764,3.383031
400,631,-439,3260,-336,15020,3.395946
544,506,-492,3272,-372,15104,3.398649
644,373,-518,3216,-428,15084,3.401352
1367,-914,-762,3244,-384,15164,3.414265
1535,-1151,-787,3296,-304,15068,3.416988
2305,-1964,-923,3348,-216,14736,3.42994
2394,-2034,-957,3364,-252,14800,3.43266
2507,-2083,-1056,3320,-252,14652,3.435383
2925,-1814,-1210,3760,-56,14808,3.448293
2950,-1672,-1237,3808,-108,14860,3.450999
2938,-633,-1214,4116,-48,15576,3.463917
2879,-387,-1246,4024,40,15884,3.46664
2156,694,-1195,4176,264,16976,3.479545
1975,854,-1181,4188,328,17092,3.482236
1726,1001,-1235,4216,420,17472,3.484918
623,1077,-1088,4356,664,18456,3.497866
345,911,-1070,4416,672,18624,3.500558
-549,-81,-834,4612,804,18116,3.513473
-665,-299,-809,4672,768,18040,3.516193
-758,-493,-716,4624,808,17696,3.518914
-960,-798,-531,4552,596,16244,3.531894
-921,-760,-494,4556,516,15820,3.534613
-527,-256,-409,4292,224,15080,3.547542
-387,-137,-386,4312,120,15016,3.550262
-276,5,-393,4160,128,14880,3.552981
228,310,-379,4016,-48,15128,3.565916
335,321,-400,4008,-104,15308,3.568621
623,344,-432,3904,20,15660,3.581512
683,301,-429,3944,-8,15796,3.584203
706,300,-407,3984,-92,15920,3.586915
725,349,-378,4000,72,16276,3.599859
649,315,-397,4056,132,16364,3.602546
342,345,-292,3896,188,16628,3.615462
275,296,-278,3812,172,16764,3.618151
178,327,-295,3804,188,16700,3.620841
-130,168,-304,3640,172,16472,3.633737
-199,128,-354,3672,184,16304,3.636442
-273,85,-424,3624,128,15740,3.649404
-246,112,-408,3692,188,15568,3.652111
-194,136,-405,3676,132,15492,3.654819
-48,344,-491,3528,44,15324,3.667718
1,289,-537,3560,136,15408,3.670421
222,340,-663,3588,248,15504,3.683308
226,283,-694,3640,236,15820,3.685998
261,246,-686,3660,288,15764,3.688684
297,-294,-691,3992,428,16204,3.701588
297,-422,-655,3992,448,16316,3.704293
217,-860,-470,4316,508,16128,3.717246
169,-914,-427,4320,468,16112,3.71995
173,-963,-378,4336,480,16040,3.722655
29,-1013,-178,4132,444,15724,3.735558
25,-904,-185,4124,400,15552,3.738262
15,-500,-166,4048,300,15328,3.751185
9,-464,-160,4060,296,15504,3.7539
1,-428,-141,4016,256,15556,3.756604
-58,-105,-89,3960,236,15536,3.769489
-93,-26,-89,3944,236,15656,3.772209
-91,31,-86,3820,180,15648,3.77492
-162,153,-165,3556,24,15760,3.787818
-118,103,-149,3516,68,15684,3.790529
89,-355,-275,3420,104,15856,3.803462
117,-499,-264,3496,108,15632,3.806165
174,-631,-306,3520,68,15692,3.808881
407,-891,-360,3716,132,15532,3.82184
426,-945,-338,3664,136,15480,3.824554
530,-712,-353,3804,176,15496,3.837469
516,-645,-336,3812,208,15744,3.840173
503,-631,-314,3836,240,15884,3.842885
349,-558,-224,3892,272,16064,3.855818
312,-546,-249,3848,304,15972,3.85853
100,-398,-139,3828,168,16236,3.871412
125,-370,-118,3828,152,16176,3.87412
99,-404,-124,3736,128,16384,3.876823
-99,-555,-156,3368,96,16192,3.889712
-164,-636,-229,3476,140,16276,3.892437
-245,-986,-308,3428,180,15736,3.90535
-180,-1048,-315,3492,164,15552,3.90807
-132,-1062,-339,3440,140,15460,3.910793
136,-1024,-398,3584,120,15308,3.923734
217,-978,-402,3564,92,15272,3.926439
506,-942,-339,3876,224,15468,3.939376
577,-850,-373,3940,288,15300,3.942083
662,-853,-336,3956,176,15416,3.944793
944,-524,-170,3952,36,15516,3.957729
992,-430,-143,3876,-4,15708,3.960436
992,-313,-111,3688,72,16180,3.973407
948,-379,-105,3724,64,16176,3.976113
880,-369,-111,3656,148,16196,3.978821
317,-456,-68,3536,340,16432,3.991703
166,-483,-95,3548,296,16504,3.994412
-264,-591,-12,3548,204,16380,4.007345
-334,-715,-30,3572,152,16248,4.010069
-326,-724,7,3504,108,15988,4.012793
-307,-590,-51,3308,-24,15488,4.025712
-242,-580,-75,3280,-88,15412,4.028448
58,-421,-237,3096,-92,15356,4.04137
119,-408,-307,3060,-140,15224,4.044094
227,-372,-297,3132,-116,15348,4.046818
516,-332,-470,3040,-32,15416,4.059773
560,-304,-513,3064,-44,15700,4.062492
624,-442,-735,3216,84,15808,4.075396
601,-449,-772,3292,148,16016,4.078102
572,-459,-767,3468,212,16096,4.080807
412,-698,-713,3884,408,16232,4.093712
380,-802,-672,3932,412,16316,4.096416
276,-856,-515,4056,384,16056,4.109335
249,-812,-469,4048,428,15928,4.112042
232,-770,-444,3996,388,15932,4.114751
152,-643,-357,3988,464,15748,4.127667
185,-595,-249,3992,424,15688,4.130374
275,-415,-276,3856,392,15488,4.143274
352,-406,-197,3752,316,15456,4.14598
371,-353,-239,3664,308,15500,4.148684
583,-377,-278,3724,380,15348,4.161591
617,-327,-267,3708,280,15448,4.164294
872,-222,-309,3580,192,15440,4.177213
909,-248,-337,3556,208,15460,4.179917
958,-308,-353,3604,176,15608,4.182622
1011,-240,-440,3608,252,15548,4.195542
1050,-192,-433,3624,172,15672,4.19825
966,-101,-438,3704,244,15844,4.211151
1005,-91,-464,3640,244,15940,4.213865
973,-79,-450,3640,300,16060,4.216571
888,-217,-403,3672,368,16160,4.229462
872,-257,-449,3624,392,16088,4.232165
855,-530,-415,3640,532,15992,4.245092
848,-539,-432,3752,504,16116,4.247804
855,-595,-443,3744,544,16112,4.250509
890,-659,-304,3956,592,16036,4.263416
933,-614,-290,4004,672,15812,4.266119
1070,-552,-106,3976,580,15784,4.27903
1132,-523,-93,3968,584,15940,4.281735
1161,-470,-31,3936,552,15872,4.284439
1128,-276,10,3752,548,15916,4.29735
1156,-255,-51,3732,476,15880,4.30004
1061,-165,-16,3500,520,15876,4.312968
1031,-144,-36,3504,512,15824,4.315676
1008,-116,-68,3392,492,15804,4.318383
783,-254,-158,3392,460,16124,4.331288
693,-297,-218,3372,452,16088,4.333995
383,-587,-255,3444,580,16264,4.346914
334,-654,-212,3476,536,16148,4.349622
210,-750,-206,3492,516,16200,4.352329
-121,-950,-188,3500,424,16072,4.365234
-148,-948,-204,3476,444,15952,4.367957
-160,-996,-252,3480,320,15716,4.380861
-176,-1013,-270,3484,376,15608,4.383585
-119,-964,-287,3368,356,15512,4.386305
104,-1086,-330,3488,424,15128,4.399243
194,-1057,-368,3552,472,15040,4.401946
520,-774,-389,3684,452,14984,4.414813
578,-735,-392,3736,460,14956,4.417527
642,-573,-383,3732,404,15004,4.420233
825,-377,-407,3776,424,15332,4.433183
845,-295,-359,3792,448,15384,4.435897
789,-500,-351,3748,548,15812,4.448807
809,-486,-300,3748,460,15856,4.451512
796,-547,-285,3780,548,15728,4.454219
710,-576,-206,3720,500,16024,4.467124
632,-623,-192,3676,488,15952,4.469827
478,-708,-235,3484,528,16208,4.482731
399,-777,-237,3412,528,16296,4.485436
343,-751,-285,3476,540,16312,4.488139
150,-804,-337,3536,664,16384,4.501064
47,-844,-307,3628,628,16404,4.503772
-107,-845,-282,3768,584,16008,4.516702
-103,-831,-279,3708,628,16052,4.519427
-118,-888,-280,3692,656,15996,4.522152
-88,-887,-248,3712,568,15728,4.535092
-80,-859,-263,3692,564,15740,4.537815
60,-842,-244,3664,560,15644,4.550749
95,-808,-204,3648,556,15552,4.553456
152,-810,-216,3620,492,15596,4.556161
320,-824,-195,3536,380,15800,4.569051
313,-876,-209,3440,424,15976,4.57176
281,-1011,-244,3508,424,16060,4.58467
264,-1044,-252,3456,436,16016,4.587377
235,-1046,-264,3456,468,16088,4.590083
-51,-1047,-284,3616,516,16316,4.602962
-133,-1057,-264,3700,588,16356,4.605684
-345,-1167,-235,3788,564,16008,4.618602
-389,-1252,-235,3812,520,15972,4.621323
-388,-1187,-202,3756,576,15912,4.624045
-283,-1196,-204,3664,424,15480,4.636992
-247,-1186,-225,3664,468,15496,4.639715
53,-1006,-215,3772,488,15252,4.652649
90,-916,-178,3748,468,15212,4.655351
175,-882,-160,3836,460,15320,4.658055
413,-661,-154,3620,404,15460,4.670971
447,-574,-122,3656,320,15440,4.673678
746,-545,-164,3400,408,15660,4.686591
743,-563,-193,3400,400,15704,4.689294
764,-645,-250,3320,416,15796,4.691998
759,-1031,-367,3320,572,16084,4.7049
771,-1145,-381,3360,672,16184,4.707608
548,-1292,-371,3772,668,16172,4.72053
496,-1306,-368,3768,676,16116,4.723236
452,-1276,-354,3824,620,16060,4.725946
313,-1197,-243,3992,624,16040,4.73886
283,-1185,-247,3940,640,16060,4.741563
286,-1013,-182,3980,640,15772,4.754462
309,-932,-162,3928,604,15796,4.757166
345,-998,-146,3908,560,15732,4.75988
530,-912,-68,3712,520,15620,4.772807
573,-852,-78,3756,596,15492,4.775521
841,-671,-93,3612,548,15724,4.788456
889,-678,-102,3648,600,15668,4.79116
924,-696,-85,3692,588,15852,4.793875
830,-762,-133,3680,748,16136,4.806804
761,-798,-133,3680,704,16164,4.80951
296,-1030,-93,3884,768,16740,4.822396
198,-1058,-76,3968,792,16744,4.825103
74,-1116,-59,3992,748,16668,4.827807
-238,-1457,132,4160,724,16772,4.840709
-258,-1630,118,4180,736,16708,4.843416
-62,-2947,414,4172,724,15972,4.856319
73,-3263,437,4104,728,15712,4.859025
146,-3573,492,4096,620,15496,4.861716
978,-3822,611,3936,384,14312,4.874646
1145,-3704,561,3884,332,14216,4.877335
1883,-2597,434,3600,140,14136,4.890238
1985,-2319,398,3524,132,14104,4.892917
2109,-2077,331,3476,108,14376,4.895608
2297,-1454,77,3288,252,15576,4.908537
2220,-1357,-6,3248,380,15912,4.911229
1760,-1214,-299,3408,596,16920,4.924147
1611,-1158,-339,3460,704,17088,4.926861
1425,-1235,-405,3560,736,17304,4.929568
580,-1263,-511,4104,896,17512,4.94247
395,-1335,-477,4184,944,17540,4.945174
-363,-1823,-389,4632,1140,17328,4.958104
-489,-2046,-367,4648,1264,17304,4.960824
-498,-2254,-308,4780,1244,17240,4.963554
-373,-3493,18,4912,1168,15936,4.976526
-278,-3741,92,4836,1164,15452,4.979234
480,-4195,288,4584,816,14524,4.992167
592,-4143,280,4620,704,14196,4.994865
1232,-3676,258,4240,512,13828,5.00776
1319,-3544,226,4172,480,13888,5.010448
1462,-3342,204,4124,444,13936,5.013137
1810,-2460,-63,4024,400,14224,5.026044
1897,-2284,-123,4052,412,14412,5.028751
2027,-1626,-425,4184,700,15072,5.041688
2058,-1562,-475,4308,780,15276,5.044395
2015,-1431,-450,4424,872,15380,5.047102
1682,-936,-519,4880,1060,16256,5.059997
1560,-869,-518,4956,1128,16512,5.062701
831,-636,-364,5388,1280,17084,5.075588
681,-657,-284,5452,1304,17192,5.078293
548,-789,-215,5536,1540,17424,5.080998
-276,-857,32,5136,1172,17036,5.093946
-398,-968,71,5116,1160,16916,5.096649
-702,-1328,123,4656,1052,16128,5.109558
-717,-1380,141,4668,964,15944,5.112262
-429,-1579,-19,4320,736,15084,5.125187
-315,-1602,-36,4256,628,15000,5.127911
-219,-1603,-75,4188,632,14924,5.130631
295,-1578,-340,4148,624,14496,5.143571
413,-1550,-388,4144,584,14660,5.146276
741,-1220,-637,4420,780,14816,5.159181
759,-1149,-644,4552,824,14820,5.161894
808,-969,-700,4576,844,14960,5.164602
870,-434,-704,4964,884,15576,5.177526
825,-359,-658,4988,920,15804,5.180233
662,-388,-454,5228,1144,16460,5.193138
588,-435,-376,5284,1112,16416,5.195841
583,-511,-370,5260,1128,16560,5.198554
451,-1050,-137,5112,1152,16592,5.211462
387,-1236,-98,5084,1104,16680,5.214166
175,-2150,-35,5092,1076,16564,5.227095
120,-2332,65,5048,1108,16408,5.229804
129,-2457,52,4964,1128,16240,5.232491
26,-2812,42,4760,968,15588,5.245383
47,-2800,7,4652,936,15644,5.24807
110,-2660,-128,4524,716,15188,5.26095
153,-2511,-181,4556,712,15152,5.263656
218,-2499,-238,4524,744,14980,5.266363
391,-2117,-444,4664,820,14948,5.279251
374,-1982,-499,4788,856,15016,5.281957
446,-1570,-461,5280,956,15296,5.294863
448,-1520,-516,5336,960,15284,5.297571
445,-1418,-478,5476,1036,15376,5.300276
332,-1457,-300,5752,1100,15912,5.313193
308,-1520,-239,5736,1240,15968,5.315902
111,-2268,46,5928,1420,16072,5.328793
120,-2524,112,5872,1452,15920,5.331481
93,-2671,195,5908,1428,15664,5.334168
182,-3183,409,5512,1016,14768,5.347046
250,-3169,410,5364,932,14488,5.349734
680,-2462,297,4948,620,13700,5.362611
775,-2264,288,4952,668,13788,5.365298
1089,-1221,66,4944,776,14324,5.378186
1139,-1120,52,4992,848,14568,5.380882
1126,-1012,38,5112,872,14872,5.383571
952,-911,-25,5212,1044,15720,5.396442
880,-890,-33,5264,1128,15848,5.399148
466,-1007,9,5460,1052,16224,5.41204
413,-1085,61,5428,1156,16308,5.414729
273,-1104,73,5444,1080,16388,5.417416
-349,-1330,201,5528,1048,16292,5.430305
-493,-1354,211,5524,996,16336,5.432997
-906,-1722,299,5280,980,15824,5.4459
-936,-1832,295,5216,892,15708,5.448608
-945,-1981,318,5144,812,15452,5.451315
-681,-2658,236,4936,732,14420,5.464247
-559,-2735,159,4860,628,14108,5.466955
139,-2353,-10,4904,440,13508,5.479879
315,-2205,-45,4884,360,13504,5.482585
456,-2011,-89,4856,268,13500,5.485291
1041,-1260,-295,4764,324,14112,5.498214
1135,-1162,-397,4772,428,14132,5.500923
1154,-869,-657,4976,708,15164,5.513796
1129,-876,-648,5008,844,15452,5.516502
1053,-845,-698,5116,936,15576,5.519208
453,-791,-697,5684,1192,16176,5.532131
280,-844,-670,5760,1312,16336,5.534838
-459,-826,-468,6048,1380,16296,5.547724
-619,-821,-404,6120,1384,16284,5.550445
-720,-865,-350,6052,1404,16152,5.553165
-909,-1082,-197,5924,1236,15272,5.56608
-875,-1220,-174,5920,1192,15092,5.568805
-279,-1415,4,5700,912,14180,5.581703
-127,-1356,25,5652,836,14192,5.584412
341,-970,-44,5180,608,14240,5.597349
406,-855,-89,5168,620,14296,5.600052
466,-716,-134,5120,656,14408,5.60276
446,-331,-262,4968,640,15260,5.615646
462,-316,-321,4964,640,15536,5.618349
43,-531,-502,5012,712,15984,5.631287
-63,-621,-554,5068,880,16100,5.633995
-212,-617,-575,5128,916,16144,5.636718
-714,-567,-614,5560,964,16128,5.649619
-825,-529,-611,5608,920,16152,5.652343
-1143,-524,-507,5852,896,15968,5.665313
-1165,-568,-487,5832,796,15928,5.668034
-1164,-638,-474,5816,812,15956,5.67076
-1026,-1673,-323,5800,952,15440,5.683714
-950,-1860,-288,5764,956,15224,5.686439
-405,-2138,-250,5672,824,14060,5.699394
-235,-2044,-303,5716,792,13708,5.702117
-81,-1894,-306,5720,644,13656,5.704841
511,-945,-393,5592,480,13944,5.717783
621,-795,-374,5620,464,14156,5.72049
867,-253,-432,5696,656,15212,5.73337
876,-248,-410,5616,676,15496,5.736077
869,-291,-435,5564,788,15768,5.738784
604,-619,-499,5692,996,16448,5.751667
506,-733,-514,5724,908,16500,5.754374
-194,-1120,-477,6016,1156,16772,5.767294
-353,-1213,-485,6032,1152,16772,5.77
-547,-1278,-409,6056,1268,16792,5.77272
-1229,-1438,-296,6132,1240,16188,5.785657
-1332,-1474,-251,6080,1220,16148,5.788381
-1538,-1713,-173,5956,988,15376,5.801287
-1514,-1710,-143,5996,872,15172,5.803997
-1223,-1559,-145,5828,756,14364,5.81696
-1065,-1539,-121,5864,704,14276,5.819684
-923,-1493,-153,5740,768,14080,5.822413
-310,-1298,-230,5788,664,14200,5.83535
-237,-1252,-243,5808,600,14220,5.83807
-123,-1139,-284,5916,792,14788,5.850973
-55,-1133,-296,6004,804,14952,5.853695
-102,-1117,-291,5972,888,14888,5.856418
-38,-1438,-208,6008,808,15268,5.869335
-60,-1565,-194,6028,836,15376,5.872055
-13,-1797,-215,5952,836,15120,5.885018
50,-1807,-231,6024,880,14996,5.887738
42,-1897,-238,6020,876,15208,5.890443
126,-2433,-60,6076,792,15116,5.903354
125,-2440,-70,6060,720,14984,5.90606
202,-2488,-67,6092,836,14576,5.918958
214,-2512,-41,6140,836,14456,5.921665
286,-2469,8,6240,828,14520,5.924368
393,-2098,20,6064,588,14340,5.937244
464,-1981,60,5936,544,14244,5.939921
728,-1496,-20,5840,408,14252,5.95278
782,-1368,-56,5860,428,14420,5.955488
825,-1298,-63,5772,360,14464,5.958191
820,-951,-188,5696,476,15016,5.971113
788,-872,-181,5624,532,15168,5.973821
352,-961,-356,5696,720,15640,5.986757
236,-1008,-378,5792,768,15616,5.989462
109,-1033,-396,5932,792,15896,5.992166
-450,-1371,-305,6360,936,15756,6.005075
-564,-1411,-315,6452,952,15580,6.007804
-575,-1791,-91,6492,804,15120,6.020701
-518,-1890,-77,6488,784,15080,6.023426
-512,-2063,-15,6520,772,14928,6.026151
51,-2882,55,6404,808,14128,6.039125
183,-2973,94,6368,812,13900,6.041815
925,-2665,74,6156,588,13220,6.054712
1055,-2488,82,6248,536,13308,6.057399
1222,-2258,54,6128,504,13388,6.060087
1665,-1371,-127,5820,248,14144,6.07298
1713,-1232,-189,5812,260,14292,6.075684
1732,-1024,-477,5812,368,15480,6.088588
1640,-1033,-525,5832,488,15660,6.091293
1571,-1135,-543,5944,628,15892,6.093998
693,-1259,-673,6380,764,16588,6.1069
551,-1266,-682,6400,832,16508,6.109606
-430,-1127,-538,6740,788,16716,6.122487
-618,-1193,-523,6760,732,16624,6.125208
-1172,-1595,-335,6724,768,16124,6.138137
-1175,-1717,-320,6616,796,15988,6.140865
-1238,-1913,-304,6572,820,15844,6.143588
-1039,-2449,-302,6404,752,14688,6.156499
-978,-2489,-306,6432,688,14620,6.159223
-334,-2582,-416,6260,404,14304,6.172165
-216,-2590,-473,6236,376,14304,6.174897
-130,-2666,-492,6188,416,14188,6.177619
264,-2558,-675,6352,656,13712,6.190585
352,-2450,-679,6496,724,13660,6.193291
696,-1984,-723,6860,636,13976,6.206211
693,-1872,-682,6984,660,14080,6.208917
830,-1381,-545,7156,736,14644,6.221815
807,-1322,-507,7088,680,14812,6.224527
786,-1267,-469,7080,764,14988,6.227233
477,-1231,-360,6908,912,15260,6.240115
383,-1186,-362,6924,972,15288,6.242821
-49,-1034,-344,6876,836,15232,6.255739
-82,-989,-300,6868,796,15292,6.258462
-148,-970,-303,6840,772,15320,6.261184
-318,-1076,-259,6848,752,15092,6.274143
-302,-1097,-280,6800,804,15096,6.276874
-348,-1237,-254,7064,812,14680,6.28977
-336,-1268,-236,7052,812,14652,6.29249
-340,-1218,-221,7076,816,14608,6.295209
-203,-943,6,7116,760,14320,6.308127
-172,-903,15,7080,616,14388,6.310834
-2,-651,77,6824,480,14436,6.323714
82,-631,79,6716,364,14516,6.326417
99,-584,94,6588,400,14640,6.329104
87,-540,-32,6288,428,14952,6.341957
40,-501,-129,6260,412,14948,6.344664
-171,-645,-294,6380,508,15248,6.357583
-195,-639,-320,6396,452,15292,6.360303
-247,-738,-369,6492,528,15336,6.363025
-316,-964,-402,6832,596,15048,6.375961
-343,-988,-363,6884,560,15036,6.378684
-322,-1003,-289,7180,644,14504,6.391585
-303,-978,-268,7164,688,14612,6.394305
-256,-886,-201,7228,660,14484,6.397025
-186,-552,-98,6984,548,14472,6.409946
-147,-512,-81,7012,544,14456,6.412667
-2,-474,-50,6800,528,14548,6.425579
66,-512,-42,6792,444,14648,6.4283
91,-551,-40,6784,500,14664,6.431006
187,-910,-74,6660,436,14568,6.443911
213,-892,-94,6712,460,14480,6.446615
425,-673,-172,6712,448,14364,6.459489
433,-565,-186,6680,472,14364,6.462193
475,-564,-184,6636,364,14408,6.464902
435,-467,-227,6768,420,14936,6.477821
445,-491,-231,6752,544,15020,6.480535
184,-512,-217,6872,756,15320,6.493434
112,-584,-198,6816,808,15384,6.496137
51,-642,-162,6856,784,15416,6.49884
-71,-883,-145,6944,664,14968,6.511751
-96,-927,-137,6896,636,15008,6.514473
-36,-1010,-113,7040,632,14624,6.527372
-21,-991,-90,7048,724,14524,6.530094
5,-917,-102,7108,712,14528,6.532818
37,-685,-60,6964,716,14384,6.545734
17,-677,-46,7016,716,14568,6.548439
18,-611,-37,7048,696,14516,6.561363
23,-596,1,7132,672,14516,6.564068
56,-658,61,7132,656,14468,6.56676
197,-475,170,7132,588,14264,6.579643
206,-381,210,7120,532,14224,6.582332
207,-289,201,7024,480,14204,6.585022
308,2,223,6868,456,14324,6.597908
300,92,224,6784,464,14476,6.600578
265,98,189,6740,368,14692,6.613434
193,99,197,6724,356,14668,6.616104
198,56,158,6756,440,14624,6.618781
55,141,169,6576,468,14720,6.631637
-4,170,128,6580,416,14632,6.63431
-42,197,123,6656,472,14800,6.636997
-316,442,117,6592,544,14864,6.649922
-363,471,90,6584,520,14884,6.65261
-607,716,36,6532,416,15076,6.665498
-634,684,-5,6520,444,15020,6.668189
-627,710,-41,6524,384,15016,6.6709
-709,448,8,6620,400,15108,6.683807
-714,340,-51,6568,260,14968,6.686493
-674,309,2,6628,268,14736,6.699381
-681,413,31,6628,304,14620,6.702069
-712,453,-22,6504,276,14728,6.70476
-753,730,21,6368,184,14748,6.717712
-761,795,-14,6296,128,14628,6.720399
-776,859,7,6200,104,14660,6.723102
-800,1265,-124,6068,184,14812,6.735993
-825,1307,-166,6068,156,14820,6.738697
-773,1372,-341,6052,216,15032,6.751648
-794,1290,-369,6052,264,15068,6.754351
-785,1246,-414,6016,260,15132,6.757055
-722,698,-506,6356,368,15196,6.769988
-722,577,-493,6508,388,15156,6.772695
-674,257,-371,6844,340,14884,6.785591
-668,283,-309,6872,328,14832,6.788296
-671,333,-251,6900,312,14668,6.791
-719,839,-70,6760,204,14572,6.80392
-777,984,-44,6652,176,14484,6.806627
-843,1577,54,6420,204,14524,6.819551
-921,1681,62,6328,176,14472,6.82224
-897,1736,25,6180,196,14420,6.82492
-941,2005,-52,6044,192,14424,6.837816
-909,2081,-96,5964,76,14324,6.840527
-667,2312,-133,6200,48,14612,6.853462
-620,2417,-109,6184,12,14620,6.856165
-580,2418,-132,6236,-20,14712,6.85888
-391,2278,-101,6156,80,15212,6.871826
-347,2144,-116,6180,80,15360,6.87454
-393,1534,21,6124,100,15660,6.887487
-457,1465,35,6124,140,15568,6.890175
-433,1373,65,6076,172,15572,6.892874
-406,1115,112,5828,108,15368,6.905771
-377,1002,157,5808,16,15360,6.90846
-130,724,136,5652,-268,15088,6.921342
-49,711,159,5528,-216,15140,6.924049
-1,669,126,5440,-276,14964,6.926756
201,828,-34,5300,-392,15080,6.939703
197,908,5,5256,-388,15120,6.942412
230,968,-53,5264,-420,15196,6.945102
122,1338,-161,5224,-488,15452,6.958041
82,1366,-208,5136,-448,15636,6.960749
-106,1366,-306,5196,-284,15796,6.973647
-203,1383,-345,5260,-340,15712,6.976367
-393,1219,-362,5412,-236,15836,6.989291
-432,1155,-391,5420,-212,15804,6.992
-465,1114,-331,5412,-292,15656,6.994719
-498,985,-334,5320,-204,15424,7.007676
-514,956,-365,5344,-316,15544,7.010404
-439,792,-372,5168,-248,15444,7.023355
-403,691,-420,5208,-240,15464,7.026077
-413,633,-462,5132,-176,15428,7.028804
-308,281,-474,5384,-120,15248,7.041735
-278,233,-473,5344,-80,15256,7.044456
-8,-110,-450,5492,-120,14916,7.057418
66,-126,-461,5460,-124,14828,7.060154
138,-156,-385,5524,-60,14760,7.062882
371,112,-292,5640,-52,14652,7.075851
429,232,-291,5588,-84,14480,7.078562
501,815,-184,5412,-148,14640,7.091462
493,946,-164,5284,-152,14656,7.094168
527,1015,-167,5200,-176,14728,7.096882
640,1116,-269,4860,-204,14800,7.109809
668,1089,-277,4848,-244,14972,7.112523
660,721,-488,4904,-64,15288,7.12542
664,588,-524,4960,-60,15164,7.128128
729,491,-525,4868,-128,15280,7.130834
777,196,-562,5188,20,15336,7.143718
724,130,-569,5300,28,15268,7.146408
476,193,-434,5436,216,15196,7.159324
427,163,-418,5460,164,15252,7.162
372,219,-388,5448,260,15216,7.164687
225,551,-228,5296,36,15144,7.177585
204,608,-205,5192,20,15080,7.180274
220,646,-193,5128,-52,14932,7.182963
342,757,-175,4656,-188,14920,7.195919
343,757,-239,4584,-256,15172,7.198627
364,759,-430,4352,-204,15168,7.211593
368,745,-481,4380,-152,15216,7.214296
379,751,-443,4440,-48,15248,7.217
301,791,-619,4536,-60,15420,7.229911
239,790,-685,4628,-84,15516,7.232614
174,673,-690,4916,16,15524,7.245509
191,649,-681,4940,12,15464,7.248201
199,625,-691,5048,48,15452,7.2509
348,472,-540,5180,120,15204,7.26377
394,446,-474,5148,92,15356,7.266459
528,523,-351,4940,28,15136,7.279342
580,625,-351,4900,-68,15224,7.282031
562,670,-365,4908,8,15324,7.284734
598,937,-312,4624,12,15472,7.297602
631,1003,-345,4536,-40,15664,7.300288
603,979,-323,4520,-28,15704,7.302994
489,958,-419,4368,-52,15852,7.315897
433,967,-453,4424,-28,15880,7.318602
225,787,-522,4472,48,15892,7.331524
204,750,-525,4620,68,15764,7.334211
137,686,-503,4576,92,15720,7.336901
158,698,-469,4796,48,15248,7.349784
203,683,-423,4904,68,15272,7.352474
443,920,-242,4924,44,14864,7.365382
525,983,-241,4884,-24,14796,7.368069
572,950,-163,4808,-36,14836,7.370774
863,1029,-113,4528,-72,14828,7.383682
902,1090,-119,4412,-100,14892,7.386387
960,1317,-243,4004,-192,14896,7.399303
967,1370,-258,3824,-364,15120,7.401997
1019,1440,-302,3724,-404,14956,7.4047
1022,1647,-708,3108,-492,15212,7.417631
1019,1677,-790,3128,-420,15164,7.420335
988,1491,-1151,3432,-276,15480,7.433244
1029,1481,-1219,3596,-192,15508,7.435948
1067,1432,-1260,3640,-164,15596,7.438654
1164,1199,-1335,4088,76,16004,7.451611
1161,1071,-1345,4156,136,16012,7.454298
1111,581,-1236,4696,428,16252,7.467223
1116,484,-1161,4780,544,16288,7.469914
1010,99,-764,5200,672,16280,7.482868
947,71,-663,5120,648,16128,7.485558
921,158,-597,5056,616,16148,7.488245
799,426,-314,4600,272,15616,7.501134
806,534,-299,4500,312,15720,7.503824
942,724,-173,4296,108,15240,7.516703
1033,853,-136,4244,120,15260,7.519394
1088,952,-135,4140,128,15096,7.522084
1397,1655,-263,3712,28,14840,7.534948
1447,1872,-295,3672,56,14956,7.537637
1597,2799,-448,3648,80,15224,7.550567
1588,3037,-483,3528,216,15464,7.553256
1632,3217,-528,3480,180,15624,7.555946
1460,3578,-726,3476,320,16368,7.568874
1362,3605,-772,3552,496,16708,7.571562
960,2835,-847,3716,840,17448,7.58448
857,2641,-887,3888,844,17512,7.587166
753,2398,-829,3984,976,17608,7.589863
169,1165,-561,4452,1184,17744,7.602735
70,914,-486,4428,1100,17592,7.605427
-468,182,-85,4396,988,16896,7.618312
-542,97,-28,4292,1012,16728,7.621
-617,0,33,4228,960,16364,7.623703
-650,-77,233,3704,612,15436,7.636605
-606,-55,235,3612,556,15352,7.639312
-576,-59,253,3548,584,15296,7.642
-261,85,134,3064,256,14672,7.65494
-179,106,52,3024,184,14616,7.657628
337,609,-119,2764,-40,14264,7.670542
424,737,-191,2672,-120,14416,7.673245
559,905,-193,2676,-32,14344,7.675949
998,1353,-543,2568,-84,15060,7.688868
1055,1403,-553,2604,4,15284,7.691574
1107,1291,-744,2708,128,16236,7.704476
1049,1234,-767,2804,276,16380,7.707164
1060,1187,-823,2784,252,16476,7.709864
675,588,-862,3096,536,16940,7.722793
562,427,-882,3152,580,17036,7.72548
224,-182,-804,3368,788,16844,7.738342
147,-325,-794,3324,716,16828,7.741046
70,-476,-763,3388,728,16560,7.743756
-158,-718,-635,3348,640,16164,7.756656
-132,-725,-625,3276,596,15956,7.75938
-71,-354,-593,2960,348,15788,7.772351
-94,-251,-645,2904,368,15748,7.775071
-54,-250,-614,2936,272,15680,7.777794
108,-163,-694,2908,380,15916,7.790756
109,-208,-700,2924,432,16084,7.793462
171,-316,-718,3060,496,16196,7.806377
233,-361,-743,3136,584,16256,7.809083
187,-380,-710,3240,540,16276,7.811793
82,-597,-615,3512,756,16200,7.82471
57,-593,-570,3592,740,16124,7.827416
-50,-908,-392,3772,920,16208,7.840315
-72,-922,-343,3896,928,16120,7.843034
-80,-1004,-226,3932,900,16136,7.845759
-116,-934,101,3824,664,15792,7.858664
-105,-891,141,3700,564,15652,7.861368
40,-218,215,2940,228,15476,7.874254
103,-179,174,2724,132,15392,7.876946
162,-60,142,2624,64,15448,7.879632
340,-59,-191,2156,44,15792,7.892509
392,-88,-266,2096,24,15868,7.895216
408,-213,-348,2100,8,15992,7.897914
414,-728,-639,2376,240,16344,7.910834
386,-886,-704,2464,256,16548,7.913546
208,-1279,-836,2864,376,16264,7.926428
151,-1268,-827,3084,356,16324,7.929134
107,-1309,-823,3120,452,16292,7.93184
44,-1144,-720,3464,500,15924,7.944775
97,-1149,-692,3508,452,15840,7.94748
287,-762,-413,3584,412,15828,7.960366
301,-702,-445,3588,408,15836,7.96307
365,-644,-367,3584,464,15904,7.965781
344,-434,-224,3316,360,16072,7.978681
323,-408,-180,3224,408,16116,7.981387
183,-386,-224,2872,348,16240,7.994307
198,-411,-233,2864,328,16172,7.996997
127,-363,-226,2864,344,16156,7.9997
45,-589,-368,2692,292,16096,8.012605
38,-607,-387,2676,316,16180,8.015307
-41,-645,-550,2732,424,15868,8.028231
-52,-652,-621,2696,392,16000,8.030954
-16,-664,-620,2756,444,15936,8.033678
-78,-747,-684,3048,368,16056,8.046646
-74,-704,-658,3128,380,16020,8.049365
-43,-860,-504,3432,528,16152,8.062291
-58,-870,-457,3488,500,16080,8.065
-43,-930,-408,3592,540,16104,8.067719
5,-980,-143,3468,532,15724,8.080658
-45,-885,-115,3420,532,15648,8.083363
41,-581,14,3108,288,15424,8.0963
69,-532,3,3024,320,15492,8.098989
77,-492,6,2968,264,15456,8.101679
70,-490,-141,2604,264,15512,8.114629
80,-516,-157,2636,300,15532,8.117332
83,-507,-244,2580,276,15588,8.120034
186,-518,-435,2504,200,15496,8.132946
215,-572,-483,2536,264,15580,8.135649
408,-601,-659,2696,220,15596,8.148585
417,-537,-673,2712,232,15472,8.151291
456,-544,-752,2732,256,15616,8.153997
472,-363,-818,2844,288,15700,8.166952
431,-260,-820,2896,304,15728,8.169656
338,-169,-822,3048,456,15984,8.182575
331,-169,-784,3076,428,16104,8.185278
273,-234,-773,3048,504,16184,8.187981
118,-551,-730,3284,664,16212,8.200904
136,-628,-738,3408,776,16156,8.203611
207,-830,-562,3480,608,15716,8.216493
228,-804,-498,3472,592,15764,8.219201
301,-803,-519,3432,504,15576,8.221911
579,-622,-427,3420,564,15512,8.234838
613,-582,-407,3316,548,15536,8.237552
751,-408,-373,3128,624,15684,8.250483
761,-397,-387,3172,612,15780,8.253189
786,-350,-404,3176,644,15744,8.2559
805,-439,-413,3232,576,16236,8.268832
762,-495,-331,3204,692,16188,8.271542
595,-579,-329,3136,684,16340,8.28449
572,-608,-362,3108,668,16292,8.287194
544,-634,-341,3064,676,16332,8.289901
302,-614,-418,3072,584,16380,8.302807
297,-622,-416,3012,656,16372,8.305513
96,-604,-416,3172,572,16208,8.318434
76,-600,-409,3180,516,16156,8.321137
71,-568,-400,3156,588,16188,8.32384
50,-564,-367,3208,600,16032,8.336798
94,-645,-352,3172,500,15960,8.339501
238,-746,-328,3184,548,15784,8.352428
274,-735,-323,3176,588,15752,8.355134
326,-784,-293,3176,552,15880,8.357841
412,-995,-264,3256,588,15868,8.370765
416,-952,-254,3312,628,15776,8.373471
412,-883,-200,3292,604,15704,8.386366
406,-848,-162,3316,584,15736,8.389069
386,-772,-144,3316,592,15772,8.391775
393,-580,-99,3060,420,15748,8.404698
396,-609,-159,2924,376,15932,8.407404
304,-670,-237,2724,440,15968,8.420304
290,-761,-271,2624,380,16120,8.422997
255,-721,-331,2576,380,16036,8.425701
182,-769,-460,2744,304,15940,8.438637
182,-789,-481,2816,368,16084,8.441343
120,-896,-530,3064,472,15836,8.454243
156,-856,-520,3088,496,15996,8.456946
138,-859,-498,3184,588,15840,8.459649
285,-842,-345,3360,480,15684,8.472576
320,-830,-333,3344,508,15580,8.475279
550,-634,-242,3152,356,15620,8.488181
557,-578,-225,3096,372,15492,8.490897
635,-563,-241,3016,368,15492,8.493605
631,-540,-348,2816,548,15908,8.506504
611,-541,-368,2804,548,15916,8.509208
460,-791,-502,2688,532,16184,8.52212
413,-893,-527,2808,536,16352,8.524824
369,-929,-544,2780,608,16372,8.527537
187,-1183,-603,2988,724,16316,8.540428
136,-1214,-635,3104,704,16324,8.543134
-112,-1194,-529,3384,684,16012,8.556058
-145,-1137,-542,3400,640,16032,8.558784
-134,-1092,-467,3420,640,15896,8.561504
-169,-904,-364,3356,560,15752,8.574453
-167,-933,-339,3360,488,15620,8.577173
-122,-811,-284,3176,580,15588,8.590105
-109,-795,-297,3152,492,15428,8.592825
-87,-701,-310,3124,544,15460,8.595554
81,-635,-344,3068,420,15452,8.608501
80,-663,-374,3068,376,15368,8.611208
226,-662,-440,3056,460,15520,8.624099
248,-707,-424,3068,516,15440,8.626805
257,-665,-421,3072,548,15528,8.629512
503,-751,-423,3080,464,15680,8.642419
513,-778,-437,3104,452,15700,8.645122
567,-736,-454,3092,460,15796,8.658023
502,-727,-446,2980,468,15764,8.660729
552,-688,-468,3000,452,15796,8.663436
458,-683,-544,2984,568,15816,8.676357
456,-687,-567,2964,540,15916,8.679063
465,-946,-605,3260,668,16088,8.691947
506,-1026,-566,3320,696,16052,8.694649
462,-1073,-576,3340,640,16032,8.697352
475,-1046,-424,3416,608,15772,8.710298
447,-970,-404,3436,668,15740,8.713001
425,-624,-340,3404,504,15640,8.725922
421,-546,-318,3388,560,15608,8.728629
415,-461,-313,3276,504,15568,8.731332
520,-403,-270,2900,444,15608,8.744238
535,-403,-335,2912,508,15704,8.746946
606,-627,-496,2776,436,15828,8.759862
633,-638,-489,2736,512,15864,8.762568
682,-675,-541,2692,432,15828,8.765273
676,-821,-631,2872,592,15880,8.778179
678,-807,-657,2948,628,15956,8.780894
667,-643,-702,3100,636,15776,8.793771
689,-615,-737,3096,672,15800,8.796477
698,-548,-738,3120,640,15832,8.799184
659,-568,-707,3376,844,16140,8.812103
693,-630,-691,3452,880,16236,8.814807
695,-831,-494,3580,920,16212,8.827687
678,-879,-498,3612,952,16124,8.830395
667,-890,-437,3644,960,16176,8.833103
522,-847,-267,3676,932,16188,8.846026
516,-787,-268,3612,948,16116,8.848732
353,-577,-186,3140,716,16200,8.86161
278,-576,-189,3032,640,16228,8.864315
240,-543,-212,3000,724,16184,8.867018
146,-613,-397,2828,692,16156,8.879946
155,-657,-397,2828,640,16148,8.882649
248,-905,-548,3044,728,16116,8.895558
237,-988,-554,3116,728,15944,8.898261
249,-1008,-558,3124,712,15944,8.900964
447,-854,-506,3424,760,15760,8.913911
506,-844,-467,3420,756,15812,8.916614
620,-786,-384,3328,696,16112,8.929497
642,-747,-435,3272,712,16152,8.932203
647,-790,-379,3344,672,16276,8.934911
440,-924,-385,3232,828,16444,8.94783
419,-928,-377,3192,812,16440,8.950542
109,-1085,-369,3200,808,16296,8.963442
40,-1085,-435,3236,784,16340,8.966148
-25,-1133,-409,3160,712,16272,8.968864
-276,-1134,-405,3296,676,16244,8.981807
-309,-1111,-400,3328,744,16132,8.984537
-417,-1116,-454,3356,844,15972,8.997459
-380,-1130,-404,3344,812,15852,9.000181
-390,-1107,-412,3444,816,15752,9.00291
-153,-1204,-337,3376,616,15536,9.015863
-112,-1159,-378,3400,696,15392,9.018586
111,-1026,-343,3140,740,15396,9.031501
156,-1005,-338,3172,720,15372,9.034208
202,-946,-386,3072,664,15600,9.036914
204,-999,-464,3204,664,15728,9.049844
183,-1079,-461,3240,784,15724,9.052558
201,-1068,-458,3280,800,15684,9.065442
222,-1056,-462,3252,748,15628,9.068148
262,-1067,-480,3236,640,15596,9.070864
232,-943,-532,3264,684,15560,9.083756
191,-958,-528,3268,732,15540,9.086462
215,-842,-524,3408,748,15536,9.099346
243,-854,-561,3384,724,15500,9.102052
218,-856,-539,3292,816,15512,9.10476
256,-1086,-517,3380,772,15580,9.117679
289,-1137,-510,3464,748,15656,9.120384
271,-1260,-443,3520,736,15696,9.133287
261,-1331,-430,3468,796,15656,9.135995
322,-1375,-368,3204,728,15444,9.148915
331,-1341,-363,3248,768,15472,9.151621
355,-1311,-400,3200,724,15520,9.154327
427,-1214,-477,3064,744,15356,9.167216
426,-1126,-534,2928,740,15244,9.169923
571,-1107,-711,2916,768,15264,9.182839
618,-1060,-749,2948,760,15192,9.185554
666,-1075,-771,3032,740,15196,9.188259
864,-1281,-859,3320,736,15516,9.201178
908,-1318,-857,3300,760,15444,9.203891
890,-1369,-805,3584,936,15784,9.216784
854,-1319,-732,3608,920,15768,9.21949
820,-1288,-700,3680,932,15840,9.222193
612,-1155,-617,3652,912,15964,9.235107
592,-1112,-559,3664,884,15972,9.23781
547,-1139,-475,3404,724,15900,9.250747
581,-1166,-491,3372,804,15840,9.253453
631,-1191,-516,3288,728,15876,9.256156
840,-1170,-629,3212,740,15656,9.269082
884,-1151,-642,3260,728,15584,9.271793
1033,-1310,-760,3520,852,15884,9.284707
1019,-1406,-725,3532,844,15960,9.287416
990,-1285,-641,3608,840,16132,9.300353
943,-1209,-669,3652,784,16164,9.30306
972,-1149,-647,3672,836,16136,9.30577
846,-926,-608,3620,800,16272,9.318718
843,-948,-608,3600,820,16408,9.321427
579,-1022,-599,3712,960,16492,9.334379
477,-974,-563,3784,1040,16456,9.337086
459,-984,-586,3824,964,16408,9.339793
282,-799,-512,3700,920,16212,9.352748
333,-813,-472,3744,920,16128,9.355454
394,-805,-520,3752,892,16084,9.368408
438,-803,-516,3832,896,15980,9.371114
479,-831,-498,3728,976,15772,9.373821
620,-842,-515,3776,1052,16008,9.386738
634,-858,-506,3772,1084,16020,9.389445
594,-839,-453,4056,1144,16048,9.402347
639,-814,-403,4120,1148,16188,9.405052
611,-824,-400,4072,1132,16072,9.40776
517,-839,-261,3920,1028,16284,9.42066
488,-892,-275,3948,1052,16516,9.423365
125,-1049,-285,3936,1340,16256,9.436256
64,-1066,-282,3892,1260,16104,9.438964
39,-1088,-272,3924,1268,16068,9.441667
-73,-1012,-232,3956,1116,15724,9.454605
-80,-1008,-193,3928,1116,15472,9.457325
149,-700,-154,3836,1052,15304,9.47023
226,-666,-145,3800,1136,15268,9.472935
290,-595,-117,3796,1028,15328,9.47564
550,-519,-208,3616,928,15620,9.488561
559,-546,-200,3608,912,15636,9.491267
629,-549,-257,3600,868,15912,9.504171
684,-643,-263,3592,976,15892,9.506882
650,-690,-273,3616,956,16132,9.509588
530,-916,-272,3632,1092,16060,9.52248
476,-974,-261,3592,1128,16064,9.525184
430,-1108,-234,3840,1236,15848,9.538111
412,-1160,-177,3872,1148,15684,9.540818
463,-1127,-168,3928,1144,15740,9.543534
535,-1361,-85,3848,1128,15764,9.556473
537,-1412,-49,3668,1180,15712,9.559177
745,-1586,-66,3420,1000,15288,9.572054
793,-1588,-112,3468,1024,15396,9.574765
955,-1516,-202,3464,1020,15500,9.587674
952,-1488,-232,3460,1048,15512,9.590382
960,-1458,-263,3480,1056,15592,9.593086
735,-1216,-395,3560,1184,15952,9.605984
636,-1165,-420,3616,1224,16184,9.608687
162,-1173,-411,3904,1364,16260,9.621629
40,-1115,-376,3932,1480,16268,9.624332
1,-1166,-418,3976,1388,16144,9.62704
-237,-1221,-270,4212,1384,15604,9.639946
-204,-1202,-182,4340,1364,15592,9.642667
-90,-1172,-62,4232,1300,14900,9.655622
-3,-1136,-51,4152,1252,14880,9.658346
93,-1135,-4,4256,1244,14808,9.661069
538,-848,72,3904,1036,14592,9.673962
604,-796,17,3792,1008,14664,9.676649
875,-782,-50,3500,1064,15224,9.689593
889,-803,-106,3488,1024,15416,9.692296
910,-824,-133,3480,1060,15464,9.694999
814,-1095,-331,3648,1132,16144,9.70792
800,-1143,-361,3728,1116,16100,9.710626
656,-1401,-310,4144,1160,16060,9.723523
628,-1388,-322,4184,1176,15920,9.726229
678,-1322,-209,4272,1048,15320,9.739146
763,-1265,-128,4212,1036,15260,9.741859
790,-1252,-135,4204,1052,15320,9.744562
1053,-985,-127,4080,1076,15236,9.757454
1091,-974,-95,4036,1064,15376,9.760157
978,-961,-104,3996,1136,15776,9.77307
969,-980,-96,4064,1116,15832,9.775781
890,-890,-104,4068,1164,15940,9.778487
736,-786,-144,3952,1076,16260,9.791428
721,-866,-143,3956,1096,16216,9.794134
591,-1081,-156,3868,968,16228,9.807027
561,-1135,-171,3876,1000,16272,9.809734
546,-1192,-171,3868,996,16152,9.81244
356,-1215,-235,3896,1160,15920,9.825364
361,-1196,-219,3884,1160,15792,9.828069
423,-1279,-261,3860,1128,15444,9.840953
479,-1199,-305,3808,1068,15392,9.843656
677,-992,-433,4004,1236,15508,9.856598
718,-985,-413,4056,1284,15512,9.859303
720,-1046,-420,4128,1392,15556,9.861994
753,-994,-388,4128,1420,16116,9.874915
727,-1054,-386,4184,1432,16156,9.877621
425,-1103,-341,4268,1524,16328,9.890571
381,-1118,-273,4292,1520,16280,9.893276
332,-1092,-267,4344,1496,16332,9.89598
106,-1136,-214,4144,1252,16176,9.90888
83,-1121,-247,4076,1216,16048,9.911588
83,-1099,-227,4108,1200,15748,9.924482
93,-1031,-224,4108,1316,15712,9.927189
80,-1092,-233,4140,1364,15712,9.929901
210,-1249,-292,3852,1272,15612,9.942827
271,-1258,-368,3848,1248,15664,9.945543
256,-1877,-423,4080,1316,15844,9.958445
216,-1990,-404,4112,1408,15900,9.961151
171,-2074,-389,4456,1620,15368,9.974043
198,-2040,-371,4512,1588,15464,9.976751
211,-2116,-362,4608,1540,15356,9.979457
313,-2147,-166,4828,1464,15416,9.992344
371,-2198,-128,4864,1468,15416,9.995049
487,-2278,117,4764,1504,15160,10.007984
532,-2309,136,4700,1440,15052,10.010671
604,-2254,179,4688,1484,15012,10.01336
702,-1874,217,4396,1324,14760,10.026234
765,-1697,184,4320,1200,14776,10.028908
1003,-1136,15,3992,1188,14604,10.041784
1090,-1048,-35,4028,1168,14692,10.044473
1341,-664,-288,4000,1196,14908,10.057374
1372,-607,-318,4028,1204,15088,10.06008
1399,-583,-329,4116,1320,15288,10.062793
1200,-878,-454,4332,1516,16104,10.075687
1173,-1010,-494,4360,1668,16216,10.078396
853,-1582,-449,4788,1880,16580,10.091317
821,-1749,-398,4820,1876,16608,10.094022
598,-2618,-122,5180,1952,16248,10.10694
587,-2734,-25,5328,1932,15992,10.109646
649,-2836,35,5248,1876,15672,10.11235
961,-2533,347,5092,1524,14720,10.125241
1095,-2372,374,5020,1556,14684,10.12792
1372,-935,397,4508,1248,14380,10.140781
1410,-455,335,4420,1224,14384,10.143471
1390,-65,282,4268,1208,14576,10.146158
1125,1558,-45,3864,1268,15796,10.159052
986,1713,-102,3804,1252,16128,10.161744
174,1286,-325,3840,1544,17332,10.174646
-5,1116,-373,3808,1712,17252,10.177335
-603,-345,-461,4132,1600,17296,10.19027
-666,-660,-479,4124,1704,17136,10.192992
-684,-1003,-451,4232,1612,16780,10.195716
-497,-2285,-373,4456,1616,15636,10.208668
-399,-2469,-384,4432,1632,15436,10.211393
29,-2747,-360,4528,1540,14700,10.224319
109,-2662,-318,4552,1516,14500,10.227025
318,-1690,-371,4844,1488,14380,10.239921
331,-1478,-348,4760,1520,14608,10.242627
353,-1252,-359,4952,1532,14744,10.245332
319,-719,-246,4872,1488,15512,10.258253
296,-676,-204,4804,1468,15536,10.260958
140,-746,-198,4600,1552,15976,10.27387
76,-732,-168,4532,1580,16052,10.276577
35,-772,-197,4612,1624,16040,10.27928
-277,-876,-253,4476,1576,15932,10.292199
-328,-875,-242,4532,1552,15744,10.294923
-383,-767,-336,4532,1496,15268,10.30783
-323,-737,-307,4544,1444,15244,10.310559
-58,-669,-348,4552,1456,14868,10.323512
-13,-639,-347,4632,1448,14840,10.326236
117,-646,-360,4632,1428,14844,10.328957
478,-558,-406,4772,1512,14660,10.341915
565,-547,-421,4744,1512,14904,10.344622
765,-781,-356,4896,1704,15296,10.357509
767,-852,-335,4956,1684,15404,10.360217
754,-1005,-277,5024,1796,15460,10.362915
684,-1207,-149,5156,1800,15652,10.375804
639,-1204,-105,5100,1800,15668,10.37851
414,-1349,42,5068,1696,16124,10.391434
345,-1274,99,5108,1668,16016,10.394121
56,-1183,172,4716,1596,15936,10.407016
-14,-1189,152,4668,1648,15904,10.409703
-46,-1108,163,4696,1636,15896,10.412412
-190,-1076,91,4516,1508,15880,10.425317
-235,-1108,70,4540,1516,15836,10.428022
-275,-1320,-59,4540,1424,15580,10.440922
-259,-1348,-76,4560,1476,15484,10.443646
-219,-1373,-81,4628,1472,15328,10.446366
8,-1387,-158,4728,1396,14848,10.459261
69,-1377,-156,4772,1468,14716,10.461964
368,-1228,-155,4944,1560,14824,10.474863
443,-1241,-154,4960,1560,14872,10.477571
545,-1147,-27,5084,1556,15292,10.490456
509,-1075,-22,5048,1504,15304,10.493161
550,-1080,12,5028,1552,15288,10.495877
509,-976,108,4868,1428,15508,10.508751
472,-975,124,4892,1472,15620,10.511443
360,-831,126,4740,1428,15668,10.524342
294,-837,100,4652,1392,15708,10.527034
314,-827,61,4648,1384,15640,10.529721
366,-1097,-75,4532,1408,15592,10.542657
398,-1191,-45,4620,1356,15528,10.545363
598,-2038,-61,4852,1428,15712,10.558317
685,-2249,-81,4920,1384,15648,10.561022
773,-2722,33,4968,1528,15180,10.573912
758,-2704,19,5004,1556,15060,10.576602
784,-2605,41,4988,1520,14844,10.579289
981,-1767,-3,4916,1360,14524,10.592179
1034,-1624,-32,4944,1300,14488,10.594894
1283,-1022,-123,5044,1340,14752,10.607786
1312,-903,-151,5000,1352,14992,10.61049
1354,-814,-140,5020,1488,14928,10.613195
1389,-589,-139,4920,1536,15548,10.626112
1389,-672,-160,4916,1628,15572,10.628818
1166,-698,-224,4992,1724,16256,10.641757
1072,-802,-225,5012,1756,16348,10.644462
747,-1628,-167,5096,1924,16600,10.657347
688,-1889,-157,5152,1860,16740,10.660052
577,-2211,-141,5288,1888,16704,10.662766
538,-3449,-5,5376,2032,16028,10.675718
551,-3686,27,5444,2032,15908,10.678427
915,-4689,178,5568,1880,14948,10.691359
992,-4802,211,5604,1816,14704,10.694051
1456,-4181,393,5696,1596,13644,10.706947
1585,-3863,413,5636,1416,13324,10.709638
1686,-3472,423,5528,1396,13476,10.712327
2066,-1553,336,4892,1192,13520,10.7252
2090,-1049,283,4840,1156,13700,10.727898
1947,635,-157,4272,1280,14960,10.740804
1822,923,-297,4124,1368,15432,10.743491
767,1474,-850,4340,1540,17400,10.756392
429,1439,-935,4448,1684,17620,10.759084
168,1255,-991,4516,1736,17856,10.761774
-1349,-9,-1090,5188,2152,18124,10.774703
-1608,-361,-1019,5340,2236,17948,10.777428
-2464,-1167,-826,5800,2376,16444,10.790335
-2494,-1204,-800,5916,2320,15948,10.793055
-2303,-1693,-443,6108,2048,14880,10.805956
-2157,-1783,-357,6072,2032,14528,10.808679
-2038,-1824,-253,6072,1932,14280,10.811404
-1151,-1383,-97,5788,1696,13196,10.824294
-921,-1186,-71,5656,1632,13184,10.827
-50,-283,-101,5252,1356,13520,10.839934
69,-99,-109,5164,1308,13616,10.842657
438,556,-371,5024,1284,14688,10.855607
431,581,-407,4976,1368,15088,10.858295
424,681,-440,4984,1360,15412,10.860982
96,555,-619,5084,1656,16400,10.87389
-8,477,-625,5112,1732,16264,10.876576
-624,-35,-652,5456,1844,16372,10.88948
-762,-120,-664,5496,1932,16408,10.892203
-874,-171,-627,5480,1824,16304,10.894918
-1337,-379,-513,5796,1828,15752,10.907868
-1406,-415,-478,5756,1768,15708,10.910591
-1319,-330,-319,5676,1708,14940,10.923524
-1222,-296,-270,5668,1692,14852,10.926245
-877,-406,-161,5456,1568,14800,10.939198
-783,-449,-122,5504,1480,14768,10.941923
-712,-439,-151,5504,1496,14896,10.944647
-384,-558,-102,5380,1516,15084,10.957597
-292,-564,-87,5408,1552,15000,10.960321
-77,-680,-34,5428,1460,15116,10.973229
-15,-692,-19,5396,1452,15124,10.975949
17,-756,-26,5360,1416,15272,10.978669
175,-666,42,5264,1356,15144,10.991576
152,-595,9,5220,1300,15196,10.994268
135,-512,28,5084,1272,15408,11.007167
113,-485,-16,5012,1352,15508,11.009864
77,-417,-32,5056,1316,15384,11.012571
-10,-432,-74,5120,1316,15512,11.02549
9,-445,-91,5132,1252,15552,11.028209
-82,-629,-97,5100,1232,15448,11.041107
-80,-675,-150,5148,1248,15528,11.043827
-84,-687,-126,5024,1212,15472,11.046558
101,-839,-221,5256,1380,15020,11.059542
186,-913,-204,5340,1364,14904,11.06225
512,-847,-178,5384,1416,14776,11.075137
567,-831,-146,5392,1384,14772,11.077841
938,-498,-138,5456,1324,14784,11.090763
987,-417,-85,5416,1396,14840,11.09347
1032,-336,-81,5528,1416,14988,11.096174
1034,-77,-5,5232,1488,15636,11.109047
940,-69,5,5180,1380,15876,11.111756
532,-202,-111,4980,1476,16660,11.124634
411,-299,-136,5104,1508,16728,11.127342
306,-464,-162,5112,1576,16920,11.130046
-265,-1742,-126,5436,1848,16960,11.14291
-360,-2058,-63,5560,1820,16888,11.14563
-488,-3161,177,5720,1852,15412,11.158571
-468,-3164,235,5716,1800,15084,11.161277
56,-2705,397,5596,1356,14172,11.174163
219,-2603,361,5600,1348,14124,11.17686
347,-2554,349,5616,1332,14144,11.179552
1223,-3023,451,5568,1428,14164,11.192453
1409,-3260,470,5552,1448,14168,11.19514
2278,-3986,611,5468,1468,13596,11.208016
2463,-4043,608,5396,1260,13492,11.210704
2680,-4083,637,5340,1264,13600,11.213394
3309,-3610,463,5020,1024,13944,11.226252
3344,-3417,458,4968,1028,14164,11.228946
3119,-2345,122,4864,1280,15252,11.241874
2982,-2121,21,4808,1364,15372,11.244562
2058,-1212,-419,4700,1520,16572,11.257481
1813,-1059,-491,4764,1560,16752,11.260189
1540,-893,-593,4832,1648,16940,11.262901
216,-468,-923,5544,1864,17580,11.275784
-99,-446,-919,5744,1968,17688,11.27849
-1181,-956,-717,6524,2184,17468,11.291387
-1378,-1109,-633,6540,2212,17280,11.294111
-1956,-2122,-247,6580,2264,16164,11.306996
-2028,-2179,-189,6560,2144,15660,11.309718
-2029,-2263,-133,6428,2100,15448,11.31244
-1851,-2206,52,6236,1828,14052,11.325365
-1775,-2091,54,6216,1780,13796,11.328069
-1216,-1622,61,5776,1348,13200,11.340951
-1053,-1515,43,5688,1348,13232,11.343657
-325,-884,-129,5504,1256,13484,11.356601
-207,-857,-218,5436,1308,13676,11.359323
-34,-872,-230,5480,1324,13836,11.362045
230,-1109,-442,5500,1488,14616,11.374946
234,-1100,-521,5632,1512,14716,11.377649
22,-1245,-581,6092,1688,15048,11.390562
-70,-1256,-560,6196,1672,15156,11.39327
-314,-1090,-394,6524,1596,14760,11.406189
-360,-973,-390,6512,1588,14764,11.408914
-368,-965,-352,6516,1628,14644,11.411638
-261,-767,-108,6368,1500,14452,11.424611
-200,-704,-118,6324,1508,14296,11.427332
93,-553,-30,6096,1332,14400,11.440304
156,-467,-71,6016,1344,14428,11.442994
195,-473,-45,5948,1336,14560,11.445701
134,-296,-127,5740,1428,15012,11.458588
83,-319,-165,5728,1448,15216,11.461294
8,-500,-234,5768,1436,15408,11.474229
-17,-509,-299,5788,1496,15444,11.476934
18,-692,-325,5940,1388,15284,11.489875
35,-695,-296,6020,1416,15248,11.492578
24,-703,-331,6028,1384,15216,11.495284
166,-620,-302,6236,1500,15084,11.508212
197,-574,-219,6220,1460,15132,11.510917
228,-490,-106,6268,1368,15128,11.523816
273,-516,-114,6220,1444,15252,11.526528
247,-537,-88,6180,1416,15156,11.529236
367,-518,10,6000,1500,15116,11.542103
382,-578,-23,5972,1396,15312,11.544793
270,-687,-67,5796,1328,15368,11.557678
247,-676,-90,5764,1396,15332,11.560384
217,-637,-82,5844,1360,15372,11.563087
-19,-441,-171,5856,1384,15652,11.576017
-56,-422,-156,5908,1380,15684,11.578737
-337,-444,-232,5860,1440,15860,11.591696
-370,-468,-222,5940,1392,15828,11.594419
-668,-589,-195,6104,1556,15756,11.607319
-660,-644,-202,6088,1460,15572,11.610042
-712,-604,-172,6104,1468,15524,11.61277
-647,-650,-84,6124,1272,15108,11.625717
-579,-643,-54,6204,1300,15052,11.628439
-296,-667,-30,5908,1296,14712,11.641347
-204,-697,-8,5848,1260,14856,11.644069
-184,-771,-50,5824,1252,14776,11.646793
42,-769,-123,5884,1360,14676,11.659698
80,-774,-109,5964,1284,14732,11.662407
127,-684,-135,6052,1220,15084,11.675325
97,-766,-151,6048,1256,15296,11.678033
-85,-897,-152,6072,1440,15520,11.690911
-65,-882,-167,6040,1364,15556,11.69363
-181,-900,-144,6076,1332,15404,11.69635
-378,-928,-98,6048,1224,15324,11.709299
-392,-974,-92,6104,1308,15372,11.712018
-465,-869,-142,5972,1268,14940,11.724956
-426,-870,-148,6036,1312,14968,11.727679
-413,-835,-179,6000,1324,14756,11.730404
-197,-836,-145,6176,1244,14780,11.743362
-131,-838,-125,6200,1396,14788,11.746086
254,-997,-65,6400,1364,14664,11.759002
343,-1039,-40,6384,1416,14672,11.761709
638,-1069,179,6508,1336,14604,11.774596
690,-1057,174,6408,1292,14688,11.777287
675,-984,214,6392,1284,14936,11.779979
243,-640,213,5980,1272,15484,11.792914
154,-540,197,5904,1352,15592,11.795605
-590,-520,144,5876,1276,16320,11.808473
-740,-629,127,5976,1268,16304,11.811176
-885,-720,169,5936,1292,16372,11.813891
-1342,-1295,189,6012,1216,15740,11.826784
-1408,-1347,155,6000,1188,15456,11.82949
-1265,-1563,104,5948,1000,14404,11.842434
-1219,-1547,98,5940,992,14304,11.845138
-699,-1210,37,5844,804,13536,11.857999
-558,-1110,-12,5932,756,13420,11.860703
-419,-992,-18,5896,724,13368,11.863428
199,-638,-175,5900,832,13608,11.876408
267,-647,-194,5916,884,13660,11.879114
537,-603,-201,5984,1104,14580,11.892027
525,-610,-222,5952,1152,14664,11.894732
511,-672,-255,5908,1184,14680,11.897439
388,-836,-241,6172,1220,15140,11.910329
369,-867,-279,6216,1324,15224,11.913034
186,-836,-94,6508,1340,15292,11.92592
160,-873,-73,6564,1216,15352,11.928626
132,-837,-17,6488,1240,15308,11.931332
-19,-647,124,6340,1180,15072,11.944203
-15,-541,185,6364,1128,14968,11.946911
-148,-293,142,6032,1104,15004,11.959847
-215,-372,120,5976,1028,15168,11.96256
-386,-395,103,6000,1040,15012,11.975462
-438,-347,117,5996,964,14984,11.978168
-462,-348,85,5936,996,15012,11.980883
-496,-257,113,5780,712,15116,11.993766
-550,-330,81,5708,668,15128,11.996473
-497,-378,-45,5476,648,15068,12.009353
-471,-432,-96,5476,624,15008,12.012072
-457,-475,-118,5408,644,14928,12.014796
-206,-659,-337,5508,708,14848,12.027718
-152,-621,-415,5528,704,14852,12.030439
-2,-586,-543,5740,772,14908,12.043344
41,-535,-545,5956,772,15068,12.046067
38,-573,-576,6016,852,15048,12.048773
23,-547,-530,6296,1064,15316,12.061712
40,-517,-522,6296,1108,15308,12.064416
-62,-571,-342,6612,1212,15340,12.077371
-44,-640,-327,6632,1216,15300,12.080094
-111,-575,-235,6608,1232,15392,12.082816
-191,-365,-102,6412,1184,15252,12.095738
-194,-292,-56,6352,1028,15116,12.098459
-184,-183,21,6104,1016,15176,12.111439
-109,-164,-44,6040,968,15172,12.114145
-117,-436,-65,5880,892,15192,12.127108
-90,-452,-103,5868,948,15320,12.129827
-109,-539,-126,5920,824,15220,12.132558
-94,-520,-198,5872,944,15060,12.145481
-120,-527,-245,5920,776,15060,12.148203
-118,-344,-271,6116,868,15004,12.161118
-115,-334,-275,6112,832,14984,12.163841
-80,-304,-285,6068,872,14932,12.166571
-19,-248,-244,6044,860,14888,12.179492
-48,-243,-247,6016,820,15040,12.182216
-303,-190,-300,5892,1060,15048,12.195162
-346,-183,-264,5876,1024,15180,12.197894
-401,-129,-304,5976,1108,15224,12.200614
-576,-358,-285,6104,1000,15640,12.213568
-569,-438,-270,6080,1004,15604,12.216291
-630,-927,-211,6224,1056,15156,12.229229
-568,-923,-180,6316,1064,15012,12.231949
-496,-757,-97,6320,1040,14680,12.244877
-489,-683,-36,6252,1012,14536,12.247596
-444,-563,-33,6216,992,14504,12.250321
-243,-175,-50,6056,676,14244,12.263241
-195,-64,-29,5844,636,14268,12.265963
26,202,-128,5776,704,14156,12.278902
19,271,-105,5664,648,14232,12.281591
81,317,-159,5796,640,14276,12.284277
235,668,-234,5636,672,14524,12.297143
247,669,-218,5660,688,14564,12.299834
203,512,-327,5688,652,15116,12.312698
183,498,-328,5680,656,15120,12.315387
110,449,-307,5688,688,15156,12.318078
-67,431,-330,5632,764,15084,12.331005
-149,382,-324,5484,764,15108,12.333712
-330,555,-445,5436,624,14824,12.346645
-370,638,-469,5468,640,14776,12.349348
-381,657,-498,5476,648,14776,12.352052
-451,698,-570,5676,824,14796,12.364984
-427,638,-588,5676,756,14668,12.367687
-234,588,-480,5844,752,14488,12.380591
-162,572,-511,5792,668,14372,12.383296
-98,593,-484,5860,648,14348,12.386
176,779,-377,5776,640,14204,12.398911
269,758,-362,5704,596,14168,12.401597
608,1159,-362,5616,644,14440,12.414487
669,1173,-369,5580,672,14496,12.417175
679,1299,-374,5584,664,14560,12.419874
757,1419,-356,5472,704,15112,12.432767
749,1434,-362,5532,716,15256,12.435456
548,1547,-374,5356,852,15428,12.448372
537,1560,-404,5396,852,15436,12.451063
478,1549,-419,5364,852,15528,12.453756
368,1336,-380,5472,576,15560,12.46667
375,1354,-380,5500,620,15604,12.46936
342,1056,-321,5388,776,15644,12.48228
333,984,-298,5392,832,15780,12.484972
342,893,-284,5356,824,15708,12.487659
339,563,-253,5072,792,15476,12.500594
388,529,-261,4988,752,15408,12.503284
520,371,-449,4924,740,15320,12.516188
547,407,-453,4964,720,15296,12.518883
575,406,-479,4900,712,15324,12.521571
672,340,-517,5184,884,15692,12.534442
665,272,-541,5212,916,15724,12.537131
596,238,-469,5416,1036,15744,12.550042
554,176,-452,5448,952,15772,12.552733
199,240,-321,5444,984,15716,12.565608
110,321,-303,5520,1008,15904,12.568298
54,297,-310,5540,948,15772,12.570989
-47,459,-180,5504,828,15744,12.58385
-96,424,-152,5464,772,15748,12.586561
-147,277,-117,5240,752,15656,12.599462
-173,268,-67,5156,764,15556,12.602166
-146,203,-109,5092,760,15496,12.604881
-104,23,-142,5004,776,15456,12.61781
-68,2,-173,4980,816,15312,12.620523
20,-41,-227,4880,636,15212,12.633404
67,-66,-261,4876,668,15292,12.636111
52,-60,-263,4924,712,15368,12.638818
19,-60,-393,4860,688,15460,12.651773
-9,-77,-403,4880,736,15440,12.65448
-237,-51,-447,5044,836,15616,12.667396
-237,-61,-458,5112,804,15564,12.670118
-298,-25,-461,5180,756,15444,12.672841
-273,85,-368,5292,764,15428,12.685766
-266,136,-342,5276,716,15400,12.688473
-227,243,-176,5348,796,15340,12.701351
-231,286,-160,5252,736,15356,12.704055
-232,290,-142,5256,744,15284,12.706766
-113,340,-74,4968,624,15120,12.719647
-96,326,-96,4900,656,15172,12.722351
13,195,-160,4628,696,15316,12.735244
-5,195,-237,4588,604,15376,12.737921
-29,137,-251,4572,628,15420,12.740625
11,-10,-376,4552,620,15324,12.753558
34,-41,-368,4524,668,15344,12.756261
81,-220,-425,4900,528,15368,12.769215
97,-273,-431,4928,496,15488,12.771923
80,-297,-411,4864,540,15312,12.774629
-43,-44,-350,4876,644,15408,12.787529
-56,13,-351,4944,708,15472,12.790253
-299,391,-317,4884,636,15604,12.803154
-312,502,-299,4884,636,15548,12.805865
-412,451,-302,4756,632,15632,12.808571
-606,624,-311,4672,540,15608,12.821512
-646,603,-342,4588,492,15484,12.824219
-669,444,-403,4440,620,15536,12.837131
-630,358,-396,4468,556,15528,12.839838
-575,200,-439,4464,556,15432,12.842554
-233,-220,-513,4476,564,14960,12.855487
-124,-256,-524,4504,568,14832,12.858208
371,-162,-551,4772,584,14460,12.871105
487,-92,-554,4828,568,14680,12.873808
567,6,-552,4836,608,14724,12.876523
751,376,-455,4892,684,15176,12.889447
761,483,-439,4852,660,15300,12.892137
608,660,-353,4844,748,15936,12.904995
494,722,-338,4832,764,16144,12.907684
447,692,-333,4732,732,16080,12.910374
-258,716,-266,4684,756,16640,12.923229
-417,688,-274,4668,732,16704,12.925934
-1058,708,-223,4572,784,16488,12.93883
-1117,537,-215,4588,728,16268,12.941543
-1194,591,-209,4576,732,16288,12.944246
-1255,192,-237,4444,508,15724,12.957167
-1180,88,-254,4480,624,15516,12.959881
-684,-84,-180,4464,680,14748,12.972766
-548,-96,-199,4428,612,14752,12.975487
257,-113,-195,4624,392,14336,12.988394
384,-67,-200,4656,484,14400,12.9911
546,34,-160,4692,436,14428,12.993807
1010,471,-96,4596,392,14904,13.006765
1083,535,-107,4568,432,15020,13.009456
1034,773,-3,4384,440,15780,13.022332
959,822,-6,4344,412,15924,13.025023
893,827,-8,4272,384,16092,13.027712
272,669,-33,4120,472,16560,13.040594
159,573,-53,4052,460,16716,13.043284
-324,342,-102,3732,384,16540,13.05615
-380,330,-134,3748,352,16332,13.058864
-482,183,-167,3728,268,16440,13.061571
-664,-110,-357,3796,364,15976,13.074489
-686,-154,-383,3856,380,15792,13.077209
-680,-87,-496,4072,364,15404,13.090144
-648,-67,-451,4160,328,15404,13.092877
-611,-23,-478,4216,384,15288,13.095597
-416,73,-492,4176,300,15180,13.108576
-318,12,-491,4140,360,15188,13.111279
72,-71,-539,4256,296,15004,13.124188
127,-54,-508,4264,320,15052,13.1269
168,-11,-529,4284,356,14924,13.129605
411,100,-539,4304,396,15216,13.142554
445,86,-500,4320,352,15156,13.145243
555,195,-440,4236,436,15540,13.158144
532,179,-437,4272,364,15584,13.160835
574,199,-420,4200,456,15548,13.16353
512,10,-449,4044,420,16044,13.176453
482,-81,-474,3932,460,16024,13.17914
405,-228,-542,4044,584,16072,13.192084
365,-237,-534,4016,540,16124,13.194793
377,-272,-574,4044,516,16076,13.197499
339,-356,-581,4108,536,15872,13.210442
357,-398,-577,4064,536,15952,13.213148
364,-592,-606,4164,712,15992,13.226062
373,-646,-614,4292,720,15956,13.228773
357,-713,-583,4308,712,15928,13.23148
313,-828,-469,4448,784,16048,13.244416
318,-798,-460,4460,712,16004,13.24712
320,-804,-362,4452,652,15868,13.260053
290,-816,-331,4428,664,15936,13.26276
300,-796,-304,4488,620,15904,13.265463
120,-658,-174,4432,680,15848,13.278353
138,-625,-139,4420,600,15728,13.281061
5,-375,-115,4100,548,15580,13.293958
15,-327,-133,4044,500,15820,13.296664
-6,-341,-110,4012,452,15556,13.299368
134,-399,-204,3972,480,15532,13.312294
173,-480,-181,4028,476,15552,13.314998
304,-467,-213,4112,404,15348,13.327906
313,-455,-193,4120,388,15292,13.330611
345,-352,-224,4132,344,15356,13.333315
317,-153,-257,3844,384,15348,13.346236
348,-106,-270,3896,344,15416,13.348946
400,-203,-387,3728,304,15488,13.361882
436,-243,-415,3780,336,15488,13.364588
463,-345,-470,3788,360,15564,13.367293
529,-632,-453,4092,456,15528,13.380211
498,-625,-475,4080,512,15476,13.382916
451,-451,-361,4140,464,15428,13.395794
429,-334,-374,4176,492,15388,13.398502
363,-96,-327,4016,380,15636,13.411425
311,-109,-304,3908,444,15720,13.414131
311,-131,-320,3896,392,15712,13.416838
311,-286,-395,3780,560,15904,13.429774
357,-279,-410,3760,488,15784,13.43248
356,-546,-469,3880,528,16056,13.445382
355,-498,-465,3916,540,15944,13.448086
339,-641,-452,3952,556,16052,13.450793
154,-596,-402,4164,604,15952,13.463679
117,-532,-374,4180,612,15964,13.466383
-1,-326,-296,4056,556,15808,13.479307
19,-321,-287,3988,500,15884,13.482027
33,-270,-304,3896,420,15836,13.484732
81,-438,-301,3816,512,15768,13.497622
61,-419,-314,3744,468,15604,13.500329
314,-573,-381,3640,436,15440,13.51323
354,-629,-446,3560,396,15452,13.515939
411,-606,-488,3616,332,15380,13.518647
515,-648,-567,3736,392,15784,13.531558
508,-628,-612,3804,408,15732,13.534262
408,-643,-602,4040,616,15892,13.547152
387,-610,-618,4100,588,16052,13.549865
344,-619,-571,4104,580,16008,13.552571
59,-620,-466,4220,668,15972,13.565492
72,-618,-462,4236,592,16084,13.5682
-111,-415,-379,4108,632,15732,13.581128
-77,-418,-306,4172,576,15820,13.583859
-95,-414,-306,4096,500,15932,13.586579
78,-270,-251,3940,408,15444,13.599529
149,-305,-262,3884,392,15468,13.602236
390,-255,-293,3608,272,15516,13.615156
418,-231,-322,3624,216,15544,13.617867
486,-266,-375,3572,312,15580,13.620574
645,-250,-438,3692,452,15660,13.633499
625,-212,-437,3700,420,15548,13.636206
517,-311,-548,3644,380,16028,13.649118
435,-268,-560,3644,496,16092,13.651824
67,-345,-598,3916,588,16224,13.664775
-18,-387,-660,3896,660,16284,13.66748
-99,-417,-632,4016,692,16216,13.670203
-304,-449,-483,4024,648,16088,13.683094
-333,-481,-497,4048,576,15944,13.685818
-231,-469,-468,3876,508,15524,13.698756
-138,-465,-447,3796,436,15420,13.70148
-130,-478,-502,3772,440,15280,13.704203
194,-359,-507,3732,564,15268,13.717124
216,-363,-527,3692,484,15112,13.719832
495,-221,-612,3708,448,15192,13.732734
540,-221,-629,3684,516,15304,13.735439
562,-233,-662,3740,516,15284,13.738145
605,-227,-688,3916,708,15676,13.75107
577,-277,-692,3936,708,15748,13.753784
421,-353,-603,4196,936,15932,13.766691
404,-357,-545,4280,940,15892,13.769398
355,-435,-542,4284,928,15884,13.772103
231,-337,-371,4308,728,15956,13.785029
177,-330,-330,4248,760,15756,13.787735
87,-147,-216,3920,552,15812,13.800676
115,-145,-204,3784,532,15788,13.803383
68,-35,-317,3512,492,15648,13.816299
61,-42,-308,3524,476,15728,13.819006
63,-26,-381,3516,480,15700,13.821712
117,108,-494,3468,448,15452,13.834665
149,140,-529,3500,472,15496,13.837352
290,197,-634,3564,408,15696,13.850237
224,204,-624,3608,424,15600,13.852918
265,164,-657,3552,532,15668,13.855608
52,351,-653,3772,740,15892,13.868474
38,394,-671,3776,744,15940,13.871164
-265,606,-562,3952,644,16292,13.884089
-307,551,-514,3988,712,16296,13.886796
-404,597,-483,3968,676,16288,13.889502
-537,307,-301,3908,708,16164,13.902445
-550,229,-335,3896,808,16140,13.905151
-474,-25,-218,3892,676,15604,13.918066
-399,-76,-209,3892,672,15400,13.920793
-318,-40,-187,3844,652,15224,13.923523
119,98,-158,3672,404,14840,13.93642
229,165,-139,3516,372,14812,13.939111
670,484,-228,3356,344,15048,13.951992
768,531,-261,3320,348,15088,13.954682
832,565,-291,3320,300,15180,13.957368
985,721,-381,3356,328,15976,13.970272
961,764,-360,3460,368,16048,13.972961
361,1409,-376,3660,616,16672,13.98587
205,1534,-317,3620,716,16704,13.98856
84,1711,-352,3604,780,16708,13.991251
-473,2024,-290,3592,620,17448,14.004125
-611,1917,-269,3536,628,17588,14.006832
-1188,1310,-222,3400,800,17360,14.019721
-1304,1156,-169,3400,820,17304,14.022428
-1362,1006,-208,3420,788,17108,14.025134
-1434,545,-236,3348,768,15976,14.038066
-1392,437,-193,3388,680,15736,14.040773
-787,222,-152,3304,416,14808,14.053668
-654,214,-173,3360,360,14660,14.056374
215,204,-129,3156,352,14576,14.069328
396,265,-164,3124,304,14616,14.072001
547,250,-160,3108,308,14764,14.074688
845,205,-194,3096,500,15360,14.087574
856,188,-191,3148,468,15488,14.090261
752,153,-139,3252,484,16076,14.10318
761,175,-129,3208,536,16044,14.105876
707,78,-97,3220,524,16068,14.108563
492,-43,-32,3056,512,16272,14.121454
446,-59,-16,2928,480,16304,14.124156
291,-179,-120,2632,336,16344,14.137034
256,-256,-169,2672,400,16244,14.139738
214,-235,-193,2648,312,16224,14.142443
169,-485,-354,2784,440,16060,14.155393
188,-438,-399,2776,408,16000,14.1581
248,-451,-336,2932,364,15872,14.170996
247,-513,-355,3004,352,15808,14.1737
218,-523,-350,3088,352,15872,14.176408
224,-324,-283,3108,288,15756,14.189328
244,-292,-321,3076,236,15700,14.192034
337,-209,-262,2860,228,15972,14.204952
344,-221,-256,2808,228,15932,14.207656
360,-267,-316,2748,264,15976,14.210363
408,-536,-332,2712,432,16048,14.223303
438,-568,-365,2732,412,16024,14.225994
374,-844,-443,2652,428,16012,14.238898
391,-858,-453,2696,344,15964,14.241605
400,-831,-495,2724,288,15952,14.244313
360,-700,-636,2820,404,15812,14.257229
394,-645,-592,2856,388,15836,14.259934
473,-541,-707,3128,480,15840,14.272891
473,-547,-656,3156,544,15884,14.275594
470,-567,-656,3140,632,15968,14.2783
458,-533,-572,3300,600,15964,14.29122
459,-574,-563,3316,676,15920,14.293918
440,-382,-441,3144,512,15936,14.306824
466,-329,-452,3200,576,15972,14.309537
440,-334,-426,3208,520,16008,14.312242
464,-429,-406,3032,524,15964,14.325161
482,-454,-387,3004,488,16048,14.327875
387,-607,-393,2908,640,16160,14.34081
300,-614,-383,2952,592,16032,14.343527
154,-575,-363,2872,508,15932,14.356441
126,-612,-375,2860,548,15900,14.359148
69,-544,-395,2892,568,15920,14.361863
88,-518,-375,2932,648,15856,14.374793
153,-507,-364,2948,628,15580,14.377499
283,-449,-348,2924,424,15744,14.390398
354,-403,-332,2952,464,15760,14.393103
402,-408,-311,3012,456,15636,14.395807
572,-373,-320,2692,428,15812,14.408695
590,-337,-335,2628,392,15840,14.411404
526,-519,-477,2416,420,16080,14.424323
462,-527,-513,2480,540,16056,14.427026
478,-579,-522,2520,504,16188,14.429732
309,-621,-651,2684,436,15956,14.442676
284,-642,-659,2712,524,16024,14.445384
120,-722,-676,2972,620,16060,14.458263
52,-665,-663,3008,592,15916,14.460966
54,-573,-639,3120,668,15920,14.46367
-133,-54,-544,3300,544,15804,14.476576
-175,143,-481,3228,440,15980,14.479295
-304,781,-397,2888,312,16340,14.492204
-358,736,-405,2736,296,16488,14.494911
-415,808,-373,2692,328,16544,14.497615
-582,314,-593,2228,336,16692,14.510554
-603,165,-613,2220,412,16640,14.51326
-582,-459,-876,2360,384,16172,14.526165
-585,-506,-888,2484,452,15992,14.528898
-358,-605,-925,3012,440,15428,14.541819
-325,-564,-971,3068,484,15512,14.544552
-291,-519,-933,3224,516,15496,14.547274
23,-409,-706,3512,656,15460,14.560207
54,-428,-628,3620,680,15496,14.562914
211,-330,-336,3484,700,15708,14.575814
230,-296,-284,3468,720,15820,14.578527
247,-359,-270,3376,648,15896,14.581233
177,-230,-168,3012,416,16136,14.594148
123,-190,-129,2900,460,16240,14.596864
-130,-15,-203,2696,316,16532,14.609763
-199,3,-215,2660,216,16600,14.612483
-322,-7,-225,2632,140,16728,14.615189
-603,71,-362,2404,320,16300,14.62811
-637,62,-450,2440,344,16296,14.630815
-724,-88,-618,2524,228,16176,14.643729
-719,-99,-633,2556,252,16060,14.646448
-677,-144,-626,2560,268,15864,14.64917
-403,-107,-713,2764,300,15708,14.662086
-329,-165,-666,2832,400,15528,14.664807
-10,-297,-618,2972,388,15736,14.677767
54,-313,-602,2988,448,15796,14.68049
86,-351,-565,2984,496,15668,14.683193
231,-461,-401,3140,464,15708,14.696067
227,-460,-357,3132,388,15936,14.698773
290,-454,-256,2912,320,16048,14.711705
323,-467,-238,2816,264,16052,14.714416
322,-460,-207,2748,240,16004,14.71712
291,-283,-308,2400,60,15984,14.730042
290,-189,-300,2304,96,15856,14.732749
86,346,-487,2316,-20,15984,14.745647
42,448,-514,2320,-4,16084,14.74835
-59,610,-545,2328,-40,16000,14.751053
-420,915,-629,2312,120,16480,14.764
-487,948,-666,2276,160,16560,14.766703
-766,443,-798,2180,404,16500,14.779603
-798,261,-845,2252,412,16472,14.782307
-841,112,-843,2292,408,16476,14.785
-988,-296,-827,2724,544,16076,14.797882
-1001,-352,-777,2832,532,15916,14.800605
-1001,-322,-598,3092,624,15664,14.813528
-935,-376,-493,3128,640,15528,14.816253
-854,-292,-456,3096,592,15384,14.818975
-482,-129,-255,3012,416,15236,14.831914
-357,-109,-198,2940,272,15236,14.834637
69,-6,-99,2624,108,15208,14.847593
146,10,-143,2528,144,15324,14.8503
231,-20,-108,2516,136,15324,14.852989
375,0,-226,2232,36,15700,14.865901
346,21,-253,2184,116,15700,14.868591
248,67,-466,2076,84,16044,14.881473
211,83,-490,2048,28,15932,14.884162
223,51,-503,2068,56,15976,14.886859
273,-56,-641,2156,-40,16024,14.899804
308,-150,-663,2096,12,16052,14.902534
473,-395,-763,2220,144,15936,14.915445
396,-384,-742,2260,224,15948,14.918151
450,-387,-769,2328,248,15948,14.920865
446,-407,-700,2736,352,16160,14.933739
415,-346,-642,2816,336,16164,14.936445
309,-242,-474,2948,436,16472,14.949368
258,-248,-415,2908,400,16452,14.952072
211,-236,-401,2908,460,16512,14.954784
-84,-160,-231,2684,312,16612,14.967718
-146,-88,-169,2604,324,16576,14.970439
-334,116,-185,2248,124,16360,14.983379
-334,144,-177,2220,40,16348,14.986086
-370,230,-216,2160,52,16300,14.988793
-353,459,-326,1932,-32,16036,15.001712
-370,479,-375,1900,-20,16068,15.004436
-305,748,-529,1980,112,16012,15.017335
-236,794,-528,2076,96,16124,15.020043
-231,767,-566,2072,144,16236,15.022752
-233,550,-530,2472,420,16212,15.035684
-298,537,-494,2616,532,16064,15.038393
-46,526,-267,2852,400,15896,15.051277
26,553,-242,2752,384,15936,15.053981
83,588,-164,2824,240,15952,15.056668
212,423,70,2796,176,16152,15.069609
215,385,128,2672,264,15928,15.072282
272,564,285,2304,256,15712,15.085182
270,604,302,2300,196,15732,15.087863
257,650,290,2204,132,15828,15.090537
195,860,272,1952,12,15856,15.103436
191,866,220,1988,12,15760,15.106106
-14,1142,227,2024,80,16044,15.118999
-94,1180,235,2052,16,15904,15.121686
-185,1248,250,2068,120,16024,15.124377
-583,2053,239,1936,68,16072,15.137304
-644,2287,220,1848,84,16048,15.139995
-1110,3285,137,1724,160,16176,15.152924
-1169,3277,92,1592,216,16368,15.155611
-1179,3239,54,1396,228,16256,15.158298
-1031,3342,-210,1376,64,16776,15.171229
-1026,3181,-201,1492,88,16892,15.173934
-1053,2160,-225,1548,252,16904,15.186813
-1066,2051,-234,1412,212,16840,15.189527
-1058,1926,-228,1580,196,16796,15.192233
-1114,1740,-61,2036,248,16588,15.205161
-1163,1602,4,2016,180,16700,15.207877
-1154,1522,217,2028,96,16056,15.220804
-1133,1502,282,2068,48,16052,15.223491
-1018,1554,505,1604,-44,16096,15.236434
-874,1450,565,1492,-136,15980,15.239137
-926,1408,585,1312,-236,16200,15.241841
-793,966,525,956,-264,16180,15.254767
-788,854,501,864,-288,16184,15.257473
-783,483,343,708,-424,16084,15.270358
-770,379,247,632,-496,16108,15.273063
-726,316,219,484,-568,16064,15.275773
-639,94,-38,612,-420,16004,15.288702
-601,21,-39,600,-488,15940,15.291428
-349,-283,-291,628,-760,15704,15.30433
-303,-256,-306,664,-688,15632,15.307069
-221,-399,-344,752,-604,15680,15.309807
47,-681,-467,1004,-516,15800,15.322732
51,-691,-447,1104,-512,15672,15.325456
231,-1001,-424,1328,-372,15960,15.33836
253,-994,-336,1396,-328,16080,15.341083
221,-1058,-321,1340,-252,16084,15.343807
309,-1124,-151,1520,-280,16252,15.356708
286,-1107,-68,1452,-388,16304,15.359434
301,-1064,-6,1276,-368,16532,15.372355
302,-1079,16,1204,-344,16484,15.375077
230,-1040,71,1132,-388,16508,15.387992
197,-1044,62,1072,-444,16640,15.390698
205,-997,19,992,-476,16516,15.393404
58,-996,-58,768,-508,16520,15.406312
17,-1010,-179,680,-580,16484,15.409033
11,-1316,-385,780,-412,16512,15.421921
37,-1341,-412,908,-420,16476,15.424644
16,-1422,-428,944,-388,16464,15.427365
-44,-1777,-441,1244,-340,16448,15.440286
-8,-1799,-402,1332,-280,16452,15.443025
-178,-1941,-318,1552,-224,16384,15.455961
-182,-2015,-304,1540,-204,16412,15.458701
-257,-2025,-276,1564,-192,16484,15.461443
-477,-1949,-128,1620,-288,16116,15.474352
-478,-1868,-145,1656,-252,16096,15.477089
-464,-1793,-78,1608,-292,15704,15.489992
-453,-1826,-44,1592,-284,15712,15.492733
-96,-1745,-127,1280,-420,15552,15.505683
-6,-1812,-130,1232,-504,15588,15.508426
50,-1867,-148,1256,-464,15632,15.511165
294,-2192,-195,1408,-424,15824,15.524097
347,-2235,-179,1428,-364,15808,15.526821
389,-2375,-227,1520,-352,16232,15.539776
355,-2378,-186,1600,-340,16216,15.542498
98,-2336,-187,1668,-444,16436,15.555442
11,-2305,-207,1708,-352,16356,15.558165
-65,-2273,-152,1668,-424,16400,15.560897
-82,-2309,-131,1636,-376,16068,15.573865
-44,-2346,-135,1640,-440,16092,15.576605
207,-2627,-71,1568,-556,15772,15.589571
229,-2623,-129,1460,-628,15692,15.592293
277,-2684,-143,1524,-552,15884,15.594999
408,-2954,-120,1752,-548,15884,15.60796
443,-2978,-102,1808,-476,15780,15.610684
602,-2957,-111,1744,-528,15844,15.62363
602,-2998,-90,1776,-532,15880,15.626351
620,-2970,-106,1732,-544,15912,15.639294
661,-2949,-129,1648,-528,15908,15.642
648,-2947,-129,1644,-576,15916,15.64472
751,-2834,-146,1636,-672,15880,15.657626
729,-2818,-185,1628,-652,15988,15.660348
932,-2952,-284,1580,-708,16020,15.673306
964,-3041,-328,1508,-612,16064,15.676029
971,-3107,-335,1544,-624,16252,15.678756
1009,-3684,-462,1664,-468,16472,15.691657
956,-3783,-506,1716,-376,16660,15.694381
618,-4199,-725,2052,-116,16868,15.707342
558,-4239,-714,2080,-148,16892,15.710066
220,-4153,-669,2460,-224,16604,15.722959
217,-4099,-664,2500,-280,16488,15.725681
187,-4037,-660,2464,-332,16348,15.728408
131,-3624,-676,2608,-156,16088,15.741329
123,-3597,-675,2628,-356,16096,15.74405
259,-3258,-625,2812,-384,15564,15.756937
286,-3168,-597,2852,-212,15476,15.759656
563,-2487,-534,2824,-128,15360,15.772626
605,-2309,-527,2976,-88,15436,15.775348
622,-2163,-493,3076,-128,15572,15.778069
538,-1698,-413,2968,-244,15988,15.79104
501,-1566,-343,2968,-228,16120,15.793767
291,-1274,-366,2824,-212,16768,15.806751
195,-1267,-355,2812,-156,16800,15.809473
123,-1244,-353,2812,-192,16824,15.812194
-178,-1464,-269,2944,-44,16880,15.825089
-232,-1551,-275,2856,-140,16784,15.827825
-343,-1829,-236,2928,-224,16400,15.840784
-334,-1835,-225,2968,-212,16388,15.843529
-255,-1666,-174,3112,-280,15788,15.856501
-201,-1621,-151,3188,-308,15572,15.859242
-161,-1518,-100,3144,-344,15660,15.86198
162,-1334,-36,2992,-476,15452,15.874901
205,-1288,-37,2880,-440,15600,15.877622
397,-1331,-80,2836,-376,15800,15.890557
445,-1354,-103,2852,-368,15844,15.893278
376,-1868,-78,3028,-304,16336,15.906216
387,-2043,-89,2992,-240,16276,15.90894
341,-2170,-61,3016,-276,16464,15.911659
150,-2656,-95,3136,-300,16260,15.924619
117,-2711,-22,3232,-316,16304,15.927343
-31,-2815,50,3364,-348,16060,15.940263
-60,-2834,88,3328,-424,15928,15.942983
-35,-2834,58,3272,-528,16060,15.945703
45,-2929,106,3256,-780,16056,15.958611
45,-3051,109,3164,-716,16208,15.961315
145,-3279,120,3076,-524,16096,15.974273
151,-3365,100,3032,-484,16200,15.97698
113,-3463,73,3096,-388,16312,15.979684
3,-3937,-14,3260,-400,16548,15.99264
-77,-4084,-40,3264,-356,16620,15.995362
-626,-4524,-53,3496,-112,16648,16.008301
-726,-4597,-58,3512,-160,16592,16.01104
-1170,-4693,-37,3828,-232,16076,16.023975
-1260,-4665,-12,3840,-300,16132,16.026716
-1251,-4618,-3,3792,-384,15832,16.029456
-1107,-4224,38,3664,-588,15160,16.04242
-1082,-4068,3,3696,-716,15148,16.04514
-629,-3313,-90,3684,-760,14608,16.05809
-521,-3130,-110,3720,-724,14636,16.060826
-108,-2310,-292,3636,-644,14752,16.07377
-38,-2190,-348,3620,-668,14792,16.076509
3,-2109,-395,3540,-660,15016,16.07925
83,-1920,-643,3704,-504,15520,16.092175
35,-1966,-682,3728,-504,15852,16.094902
-298,-2272,-718,4192,-216,16272,16.107832
-403,-2322,-740,4328,-92,16184,16.110577
-423,-2410,-708,4416,-180,16236,16.113312
-795,-2581,-547,4732,-164,16064,16.126276
-859,-2625,-525,4732,-172,15936,16.129
-1027,-2495,-311,4844,-276,15348,16.141914
-979,-2378,-253,4900,-260,15180,16.144655
-833,-2015,-20,4816,-416,14800,16.157615
-695,-1908,14,4680,-484,14636,16.160351
-653,-1815,44,4732,-504,14608,16.163071
-109,-1296,127,4508,-660,14232,16.176021
60,-1164,137,4392,-620,14272,16.178745
516,-844,109,4252,-596,14368,16.191661
678,-837,88,4168,-600,14532,16.194365
765,-781,93,4156,-648,14580,16.197069
1143,-600,14,4060,-760,14932,16.209949
1199,-568,-15,4052,-808,15024,16.212654
1193,-373,-104,3972,-760,15556,16.225591
1177,-352,-105,3896,-724,15692,16.228311
793,-522,-244,3960,-584,16332,16.241214
708,-631,-277,3984,-580,16360,16.24394
594,-680,-244,4032,-600,16436,16.246659
191,-985,-215,4288,-420,16260,16.259612
74,-1026,-221,4244,-500,16172,16.262331
-33,-1032,-178,4268,-740,15844,16.275259
16,-1038,-175,4300,-672,15824,16.277997
9,-1092,-174,4260,-668,15604,16.280718
221,-1291,-167,4268,-524,15476,16.293658
247,-1386,-148,4208,-580,15304,16.29638
666,-1763,-146,4308,-512,15400,16.309324
680,-1838,-148,4320,-572,15392,16.312048
822,-2041,-141,4444,-472,15196,16.324978
863,-2049,-130,4444,-484,15348,16.3277
860,-2012,-126,4476,-468,15340,16.330427
962,-2176,-84,4564,-500,15692,16.343384
968,-2237,-101,4620,-428,15908,16.346104
1206,-3296,-25,4676,-376,15940,16.359006
1310,-3603,30,4668,-352,15924,16.361729
1338,-3821,22,4656,-360,15852,16.364436
1660,-4737,-10,4624,-416,15308,16.377327
1790,-4838,-6,4556,-576,15356,16.38005
1969,-4696,-71,4544,-576,14792,16.392982
1977,-4531,-105,4536,-616,14812,16.395703
2179,-3235,-266,4528,-804,14456,16.408673
2220,-2914,-300,4628,-672,14408,16.411399
2283,-2591,-353,4600,-824,14440,16.414119
2381,-1082,-529,4524,-912,15212,16.427025
2356,-765,-546,4568,-780,15468,16.429751
1856,215,-699,4792,-336,16708,16.442718
1666,364,-704,4760,-316,16932,16.445427
798,313,-588,5124,-144,17916,16.458308
562,136,-577,5152,-116,18172,16.461
317,-73,-532,5208,-68,18296,16.463703
-797,-1319,-311,5212,80,18004,16.476622
-959,-1620,-292,5176,104,17752,16.479346
-1326,-2552,-155,4884,-224,16052,16.492264
-1303,-2604,-181,4868,-340,15828,16.495
-1252,-2636,-184,4844,-448,15456,16.497737
-853,-2075,-347,4872,-608,14320,16.5107
-756,-1884,-401,4924,-524,14256,16.513442
-203,-1139,-427,5108,-392,14220,16.526365
-96,-1006,-429,5080,-340,14332,16.529102
327,-680,-489,5132,-432,14964,16.542072
422,-738,-473,5144,-412,14992,16.544795
411,-694,-491,5100,-364,15208,16.547526
352,-769,-548,5256,-148,15568,16.560481
332,-740,-478,5288,-168,15524,16.563205
-18,-627,-433,5276,-164,15792,16.576136
-106,-632,-403,5344,-192,15968,16.578882
-204,-611,-424,5356,-212,15872,16.581621
-511,-715,-354,5308,-152,15600,16.594557
-508,-819,-394,5240,-156,15724,16.597294
-609,-1141,-341,5320,-104,15264,16.610235
-648,-1094,-325,5276,-56,15232,16.612974
-533,-1025,-328,5432,-68,14732,16.62591
-472,-972,-314,5412,-72,14636,16.628646
-372,-907,-285,5420,-104,14624,16.631384
-66,-745,-244,5560,-168,14560,16.644332
-4,-651,-229,5676,-148,14428,16.647069
175,-527,-79,5720,-64,14916,16.660007
181,-535,-70,5648,-112,14992,16.662729
173,-474,-4,5576,-80,15036,16.665453
203,-358,128,5312,-172,15416,16.678382
189,-363,130,5300,-272,15372,16.681086
170,-368,81,5076,-316,15464,16.693966
172,-374,47,4988,-448,15380,16.696669
197,-362,52,4992,-436,15408,16.699377
333,-405,49,5148,-508,15388,16.712322
325,-412,36,5128,-460,15376,16.71503
272,-428,60,5228,-444,15428,16.727958
273,-388,54,5136,-392,15372,16.730665
232,-345,71,5104,-408,15220,16.733368
297,-291,53,4868,-540,15256,16.746241
278,-306,80,4852,-592,15264,16.748946
309,-278,-5,4900,-476,15368,16.761873
289,-281,-56,4828,-492,15328,16.764593
267,-315,-61,4776,-444,15472,16.767313
322,-640,-112,4720,-460,15500,16.780278
384,-716,-172,4796,-452,15468,16.782997
585,-1333,-284,5124,-296,15712,16.7959
609,-1483,-266,5240,-256,15656,16.798622
653,-1680,-212,5320,-108,15640,16.801346
905,-1933,-44,5548,-160,15252,16.814265
952,-1942,34,5496,-172,15088,16.816989
1174,-1526,135,5380,-344,14652,16.829923
1251,-1361,183,5424,-380,14636,16.832629
1409,-514,116,5004,-496,15284,16.84555
1367,-465,109,4884,-452,15476,16.848256
1347,-477,86,4824,-424,15660,16.850963
908,-920,-62,4780,-32,16524,16.863873
768,-1067,-103,4744,-8,16592,16.866594
121,-1390,-139,5120,-28,16364,16.879536
38,-1358,-152,5144,-84,16380,16.882258
-99,-1349,-145,5236,-224,16288,16.88498
-407,-1154,-148,5128,-380,15864,16.897919
-429,-1153,-122,5124,-384,15848,16.900656
-279,-2218,-153,5148,-160,15764,16.913619
-180,-2597,-121,5244,-84,15556,16.916359
397,-3928,-39,5376,44,14216,16.929314
504,-4008,-1,5492,-40,13816,16.932017
678,-4043,9,5552,-108,13672,16.934738
1503,-3299,189,5804,-540,13084,16.947629
1600,-3025,238,5832,-608,12976,16.950332
2332,-1620,340,5348,-876,13536,16.963239
2401,-1370,289,5188,-768,13784,16.965946
2489,-1118,278,5136,-808,13816,16.96865
2518,-211,-27,4416,-668,15120,16.981621
2461,-112,-98,4324,-612,15428,16.984343
1857,369,-577,4220,-484,16344,16.997304
1625,513,-700,4388,-476,16500,16.999997
607,675,-1023,4748,-280,17528,17.012912
358,535,-1032,4796,-212,17548,17.015619
143,415,-1114,4836,-116,17720,17.018327
-877,-555,-1138,5324,180,17368,17.031239
-1045,-755,-1129,5432,340,17084,17.033961
-1643,-1344,-1008,5960,484,16020,17.046861
-1716,-1374,-913,6068,544,15748,17.049585
-1637,-1538,-563,6312,392,14772,17.062476
-1554,-1590,-447,6292,328,14644,17.0652
-1466,-1575,-397,6256,224,14308,17.067914
-715,-1300,-171,5968,-44,13520,17.080842
-540,-1206,-139,5876,-96,13436,17.083588
328,-372,-167,5416,-340,13380,17.096509
482,-225,-203,5256,-376,13492,17.099233
992,45,-449,5120,-180,14184,17.112179
1032,69,-481,5224,-152,14520,17.114894
1168,82,-503,5328,-68,14808,17.117597
1223,-206,-502,5660,84,15272,17.130526
1148,-221,-473,5660,64,15508,17.133233
926,-211,-311,5712,-12,15728,17.146135
856,-248,-304,5664,-80,15812,17.148865
754,-252,-308,5608,-68,15888,17.151589
304,-332,-260,5424,-52,15892,17.164537
217,-363,-259,5388,-68,15812,17.167258
-158,-564,-344,5340,-124,15628,17.180201
-204,-625,-364,5236,-192,15560,17.18294
-261,-594,-364,5308,-204,15432,17.185678
-283,-647,-411,5460,-228,14992,17.198637
-221,-622,-401,5400,-192,14928,17.201377
96,-586,-393,5516,-204,14652,17.2143
221,-566,-393,5492,-252,14648,17.217022
736,-235,-405,5500,-112,14656,17.229938
811,-199,-444,5496,-208,14720,17.232658
906,-124,-384,5480,-204,14832,17.23538
1139,77,-381,5460,-152,15328,17.248342
1197,131,-392,5376,-136,15372,17.251047
1131,57,-395,5312,52,15880,17.263966
1072,17,-396,5316,36,15996,17.266655
991,-43,-426,5372,36,16160,17.269343
521,-244,-391,5680,236,16336,17.282266
400,-325,-281,5716,284,16424,17.284972
-208,-409,-45,5876,380,16460,17.297881
-315,-370,-24,5864,344,16244,17.300604
-385,-395,86,5844,288,16080,17.303324
-390,-408,223,5448,-32,15412,17.316207
-385,-391,231,5336,-32,15212,17.318919
-76,-241,121,5000,-172,14740,17.331872
45,-240,86,4968,-116,14632,17.334594
110,-187,78,4876,-188,14588,17.3373
408,-171,-85,4920,-296,14656,17.350251
483,-202,-123,4912,-268,14612,17.352974
724,-53,-249,4948,-328,14712,17.365883
789,-58,-232,4876,-336,14852,17.368605
801,-80,-292,4968,-276,14896,17.371329
697,-63,-391,5064,-92,15196,17.384213
648,-47,-336,5112,-36,15320,17.386934
520,-110,-311,5204,-12,15556,17.399849
479,-152,-336,5188,-24,15528,17.402577
451,-160,-305,5204,-8,15440,17.4053
389,-295,-293,5356,-44,15372,17.418204
415,-276,-226,5328,-28,15372,17.420917
477,-169,-189,5176,4,15240,17.433807
473,-66,-197,5096,4,15176,17.436513
513,-55,-202,5028,72,15196,17.439219
708,-124,-319,4988,-80,15184,17.452143
718,-105,-362,5020,-72,15304,17.454873
723,-185,-386,5180,96,15584,17.46777
685,-160,-358,5300,84,15516,17.470477
638,-89,-378,5340,184,15464,17.473184
528,39,-225,5404,80,15552,17.486084
559,82,-206,5416,36,15568,17.488774
463,-99,-226,5188,160,15792,17.501635
404,-170,-225,5096,204,15712,17.504342
343,-239,-201,5096,128,15824,17.507046
142,-390,-279,5136,152,15764,17.519975
75,-411,-224,5216,120,15636,17.522682
-144,-289,-226,5220,-108,15380,17.5356
-133,-235,-217,5204,-108,15400,17.538341
-174,-198,-193,5212,-116,15404,17.54108
-65,-103,-234,4980,-252,15180,17.55399
-25,-31,-223,4912,-228,15112,17.556729
128,-82,-350,4880,-160,15076,17.569647
181,-55,-420,4920,-136,15136,17.572368
191,-68,-408,4900,-144,15144,17.575088
371,-71,-393,5208,-108,15032,17.587985
420,-52,-377,5192,-104,15088,17.590709
617,192,-324,5244,-24,14924,17.603647
647,338,-269,5228,-44,15008,17.60635
680,376,-261,5160,-8,15056,17.609053
705,527,-280,4916,44,15320,17.621946
711,536,-250,4908,112,15456,17.624632
606,343,-394,4904,180,15788,17.637535
604,260,-315,4868,196,15872,17.640229
555,246,-371,4828,196,15812,17.642917
368,66,-373,4924,312,15940,17.655821
337,72,-392,4980,228,15816,17.658512
161,-98,-302,5128,264,15648,17.671416
136,-163,-286,5120,248,15676,17.67412
112,-142,-271,5136,296,15488,17.676824
161,-130,-164,5112,352,15192,17.689738
190,-138,-153,5112,316,15224,17.692445
419,-25,-59,5092,256,15180,17.705387
466,20,-46,4948,128,15124,17.708094
472,26,-12,5012,220,15084,17.710784
578,271,19,4788,156,15416,17.723718
607,196,6,4860,184,15456,17.726388
578,168,-32,4496,20,15764,17.739306
581,82,-66,4388,-4,15828,17.741995
539,92,-78,4408,-52,15972,17.744701
386,-142,-199,4444,48,15820,17.757602
360,-171,-199,4520,44,15676,17.760305
199,138,-290,4624,0,15384,17.77321
238,143,-286,4704,8,15448,17.775907
166,201,-251,4700,-80,15484,17.778594
307,254,-223,4724,-180,15220,17.79154
349,245,-227,4696,-168,15240,17.794242
494,188,-246,4348,-268,15312,17.807148
525,117,-312,4228,-192,15244,17.809864
549,183,-321,4204,-120,15328,17.812571
534,48,-593,4156,-44,15556,17.825504
516,-52,-639,4196,-60,15564,17.828208
462,-284,-734,4592,148,15740,17.841173
401,-355,-719,4756,120,15876,17.843885
386,-390,-747,4664,152,15792,17.846591
255,-440,-680,4936,308,15700,17.859542
220,-427,-659,4972,320,15744,17.86225
153,-390,-550,5132,292,15376,17.875153
159,-387,-502,5056,324,15480,17.877865
141,-381,-471,5116,340,15488,17.880571
218,-309,-391,5048,332,15340,17.89351
287,-306,-382,4988,304,15348,17.896216
368,-282,-307,4860,240,15232,17.909127
373,-287,-379,4792,308,15244,17.911832
408,-293,-346,4740,232,15332,17.914545
430,-352,-389,4612,240,15384,17.92747
425,-410,-398,4556,220,15444,17.930174
396,-533,-519,4748,320,15528,17.943049
364,-576,-508,4788,340,15608,17.945756
330,-563,-499,4908,308,15596,17.948462
136,-629,-394,5088,464,15828,17.961393
65,-588,-351,5204,400,15764,17.9641
-184,-433,-185,5132,216,15672,17.977024
-234,-366,-137,5072,224,15580,17.979748
-234,-338,-96,4996,156,15516,17.98247
-250,107,-24,4612,-12,15412,17.995361
-285,169,-85,4540,-72,15308,17.998086
-316,482,-122,4232,-68,15324,18.011052
-331,479,-140,4292,-72,15244,18.013774
-316,525,-184,4272,-108,15264,18.016493
-197,381,-335,4304,52,15280,18.029408
-162,331,-331,4352,48,15280,18.032114
50,-40,-364,4856,316,15148,18.044993
94,-104,-359,4824,344,15196,18.047698
159,-151,-276,5032,368,15080,18.050404
466,-90,-59,5172,264,14796,18.06333
527,-55,-20,5148,260,14748,18.066034
766,430,146,4876,236,14392,18.078935
853,568,209,4884,292,14368,18.081608
954,693,228,4788,368,14356,18.084282
1419,919,217,4260,236,15092,18.097169
1462,883,146,4216,160,15092,18.099841
1465,640,-64,4036,248,15932,18.112741
1391,569,-76,4068,396,16228,18.115428
1247,467,-75,4112,312,16476,18.118117
520,88,-148,4232,372,16604,18.131031
377,76,-155,4224,292,16480,18.133718
-212,138,-168,4276,324,16224,18.146632
-284,128,-176,4376,340,15964,18.149336
-337,145,-186,4300,348,15964,18.152042
-467,195,-176,4412,372,15160,18.164972
-412,242,-174,4392,352,15052,18.167679
20,414,-84,4432,116,14584,18.180577
132,474,-98,4428,104,14532,18.183263
239,467,-49,4396,32,14636,18.18595
731,530,-12,4296,164,14968,18.198807
789,447,-49,4300,236,15036,18.201493
920,421,-10,4144,260,15428,18.214364
939,413,2,4052,244,15500,18.217052
936,449,0,4012,100,15556,18.219726
900,408,-81,3816,-4,15712,18.232611
878,408,-111,3792,-32,15636,18.235314
879,457,-252,3764,44,15736,18.248253
902,453,-273,3816,96,15832,18.250946
827,480,-269,3852,108,15864,18.253632
812,511,-307,3932,20,15948,18.266529
799,634,-310,4000,68,16016,18.269219
711,755,-240,4108,84,16228,18.282104
661,780,-229,4056,136,16312,18.284794
657,780,-178,4064,104,16444,18.287481
431,524,-99,3848,180,16436,18.300392
363,462,-136,3804,120,16572,18.303084
84,287,-195,3504,112,16332,18.315956
29,236,-226,3380,132,16204,18.318647
-31,218,-282,3360,100,16108,18.321335
-38,205,-471,3280,56,15744,18.334222
39,176,-578,3212,16,15676,18.33692
242,62,-724,3664,160,15660,18.349793
286,15,-767,3712,144,15656,18.352481
287,-1,-738,3832,188,15568,18.355172
531,146,-617,4144,244,15708,18.368059
567,125,-577,4148,276,15844,18.370752
546,84,-432,4160,464,16212,18.383645
584,30,-367,4204,468,16108,18.386332
561,-9,-324,4128,500,16124,18.389023
431,-323,-248,3840,432,16124,18.401916
409,-430,-259,3772,472,16204,18.404622
366,-538,-303,3680,344,15704,18.417591
416,-517,-313,3688,348,15496,18.420295
446,-476,-333,3728,320,15452,18.422998
652,-346,-416,3620,204,15416,18.435896
684,-391,-464,3652,212,15620,18.438602
823,-342,-484,3760,308,15644,18.451501
864,-330,-490,3820,268,15736,18.454208
906,-334,-490,3800,328,15788,18.456914
803,-299,-445,3784,344,16028,18.469843
774,-345,-434,3836,428,16168,18.472558
533,-371,-382,3880,484,15992,18.485442
479,-396,-407,3912,548,16112,18.488148
380,-346,-375,4008,512,16068,18.490864
261,-364,-317,3992,508,15956,18.503793
216,-369,-259,3964,528,15788,18.506499
230,-308,-203,3932,388,15648,18.519416
244,-241,-145,3916,380,15584,18.52212
272,-228,-128,3780,340,15576,18.524823
333,44,-173,3628,188,15532,18.537766
293,99,-177,3540,276,15592,18.540456
210,376,-261,3376,284,15832,18.553354
166,378,-269,3388,260,15808,18.556045
163,428,-292,3376,276,15980,18.558735
82,639,-427,3292,172,15928,18.571668
47,687,-448,3308,204,16008,18.574357
-196,1259,-536,3328,140,16188,18.587259
-268,1336,-589,3252,156,16208,18.589963
-350,1541,-615,3280,192,16220,18.592668
-851,2065,-715,3220,372,16688,18.605558
-929,2076,-730,3200,352,16828,18.608261
-1272,1877,-755,3340,416,16960,18.62115
-1319,1772,-745,3288,460,16968,18.623865
-1504,1337,-693,3612,628,16500,18.636774
-1591,1210,-672,3660,652,16196,18.63948
-1564,1196,-635,3628,816,15976,18.642186
-1089,931,-429,3624,380,15804,18.655097
-952,808,-403,3520,324,15744,18.657806
-571,319,-332,3412,224,15624,18.670724
-483,244,-267,3420,300,15448,18.673428
-422,299,-265,3388,372,15360,18.676134
-112,273,-227,3092,320,15192,18.68906
-72,291,-227,3004,236,15172,18.69177
391,292,-346,2824,-44,15244,18.704664
468,284,-379,2844,-84,15292,18.707367
540,310,-404,2808,-84,15396,18.71007
646,592,-496,2912,84,15880,18.722988
636,725,-525,2948,52,15876,18.725679
171,1076,-607,2960,232,16640,18.738558
47,1179,-565,2916,216,16576,18.741245
-126,1204,-605,2820,160,16624,18.743934
-768,1154,-720,2620,252,16932,18.756824
-872,1041,-766,2516,188,16756,18.759537
-1105,450,-878,2776,168,16464,18.772456
-1115,330,-842,2848,168,16264,18.775162
-817,-52,-793,3112,328,15664,18.788055
-710,-124,-731,3256,332,15404,18.790781
-591,-155,-705,3336,340,15244,18.793501
22,-163,-468,3552,388,15196,18.806446
160,-117,-391,3568,412,15100,18.809151
698,-22,-126,3428,320,15236,18.82205
789,-7,-91,3416,376,15244,18.824756
930,-28,-46,3340,312,15188,18.827462
1421,-22,97,2920,236,15556,18.840388
1471,-63,85,2852,172,15716,18.843077
1482,-53,-82,2440,88,16216,18.856021
1351,22,-120,2404,136,16324,18.858727
1282,65,-156,2440,192,16332,18.861416
420,364,-374,2492,368,16956,18.874308
219,466,-392,2492,320,16948,18.876998
-684,608,-520,2724,324,17196,18.889881
-813,588,-510,2752,308,17028,18.892588
-949,510,-482,2768,276,16924,18.895293
-1218,29,-434,2900,352,16504,18.908174
-1204,-50,-392,2904,312,16332,18.910886
-1041,-355,-234,2960,328,15452,18.923806
-932,-305,-217,3024,284,15392,18.926537
-842,-344,-165,3016,196,15160,18.929259
-306,-16,-9,2904,8,14776,18.942143
-188,-3,16,2848,-56,14640,18.944874
491,351,17,2476,-80,14784,18.957766
615,405,5,2372,-24,14764,18.960457
740,365,-31,2388,-104,14860,18.963147
1213,185,-207,2164,8,15280,18.976083
1252,159,-163,2208,12,15492,18.978773
1337,6,-280,2412,48,15940,18.991701
1340,5,-258,2384,140,16136,18.994393
1222,17,-268,2448,76,16220,18.997084
862,102,-220,2468,80,16488,19.009968
787,129,-187,2456,172,16576,19.012657
373,1,-174,2320,32,16680,19.025562
277,-78,-188,2280,96,16792,19.028251
189,-131,-182,2180,-24,16644,19.030957
-51,-288,-272,1960,-16,16240,19.043916
-94,-343,-316,2016,-8,16152,19.046654
-215,-368,-502,2220,32,15800,19.059595
-262,-309,-533,2208,188,15836,19.062314
-267,-310,-554,2220,116,15716,19.065034
-241,84,-538,2480,96,15472,19.077991
-202,195,-550,2540,60,15568,19.080698
-70,542,-528,2496,56,15808,19.093637
-62,535,-543,2508,132,15908,19.096343
-21,598,-526,2508,64,15868,19.099049
133,428,-557,2412,192,15840,19.11195
129,390,-522,2436,200,15940,19.11464
205,522,-497,2416,88,15684,19.127569
108,618,-555,2428,-8,15784,19.130259
100,811,-532,2404,-12,15832,19.132963
-245,1693,-599,2352,12,16048,19.14587
-323,1815,-592,2324,-4,16192,19.148576
-709,1998,-651,2212,-4,16672,19.161507
-767,1959,-610,2268,-20,16696,19.164229
-835,1843,-624,2236,-80,16636,19.166949
-1038,1641,-546,2188,-4,16400,19.179923
-1086,1650,-584,2236,-12,16208,19.182646
-1201,1671,-470,2284,-40,15828,19.195579
-1145,1659,-464,2264,-60,15700,19.198301
-1131,1708,-447,2272,-4,15636,19.201025
-877,1800,-364,2168,-100,15164,19.213939
-773,1796,-318,2120,-24,15092,19.216659
-130,1823,-238,1904,-244,14808,19.229593
63,1877,-215,1864,-268,14876,19.232313
749,1855,-286,1784,-116,15360,19.245271
874,1806,-242,1776,-176,15480,19.247977
1001,1822,-241,1744,-176,15528,19.250684
1225,1645,-243,1836,-48,16432,19.263602
1144,1559,-234,1808,12,16628,19.266305
767,1254,-173,1792,204,17292,19.279196
581,1287,-184,1692,224,17196,19.281894
499,1247,-138,1688,228,17312,19.284585
-56,870,-193,1500,232,17300,19.297465
-104,770,-194,1456,288,17244,19.300172
-268,152,-203,1672,176,16768,19.313066
-261,73,-154,1648,144,16748,19.315773
-213,16,-99,1752,148,16476,19.31848
-36,88,3,1724,116,16052,19.331407
-3,134,-7,1700,120,16024,19.334097
229,376,66,1388,48,16072,19.346973
267,347,18,1276,36,16136,19.349647
291,370,7,1172,-56,16168,19.352317
291,26,-106,1036,-24,16532,19.365185
252,-57,-170,988,-8,16604,19.3679
241,-195,-199,976,-12,16552,19.370621
82,-579,-336,1104,-28,16448,19.383534
69,-617,-344,1152,56,16388,19.386256
-17,-859,-376,1388,12,16096,19.399176
-22,-864,-387,1436,-48,16104,19.401901
5,-833,-353,1400,-44,16000,19.40464
55,-540,-340,1440,-68,15788,19.417593
84,-442,-347,1440,-32,15716,19.420312
235,-74,-272,1356,-224,15812,19.433255
253,-46,-319,1312,-276,15812,19.435977
249,-47,-299,1212,-188,15964,19.4387
280,-87,-382,1176,-48,16092,19.451605
263,-124,-382,1116,-24,16068,19.454328
159,-353,-459,1264,-44,16164,19.467282
114,-359,-447,1340,-28,16120,19.470005
100,-379,-480,1396,16,16156,19.472729
-133,-571,-423,1508,52,16144,19.48563
-141,-616,-410,1512,12,16112,19.48835
-172,-672,-340,1504,-152,15952,19.501258
-130,-631,-307,1468,-148,15724,19.503997
-64,-605,-281,1440,-172,15732,19.506734
241,-478,-240,1348,-252,15556,19.519712
299,-417,-252,1316,-244,15588,19.522437
491,70,-286,1160,-196,15544,19.535375
452,239,-290,1076,-232,15656,19.538081
213,1538,-533,808,-436,16200,19.550995
102,1827,-619,784,-396,16412,19.5537
-47,2049,-684,768,-332,16724,19.556408
-795,2596,-957,728,-212,17772,19.569314
-943,2524,-990,704,-76,18016,19.572034
-1605,1746,-1164,964,168,17948,19.584951
-1682,1536,-1138,1072,164,17948,19.587657
-1736,1274,-1134,1184,160,17856,19.590364
-1842,549,-894,1544,52,17120,19.603273
-1852,462,-852,1648,20,16908,19.605978
-1586,327,-563,1820,-48,16196,19.618905
-1537,329,-443,1788,-40,15996,19.621629
-1057,367,-168,1448,-236,15568,19.634576
-976,390,-114,1404,-360,15592,19.637296
-902,457,-88,1292,-396,15544,19.640017
-601,596,-126,780,-540,15492,19.652989
-503,660,-178,724,-560,15428,19.655712
-323,1478,-370,340,-628,15280,19.668612
-313,1763,-403,276,-772,15392,19.671331
-307,2060,-519,264,-748,15532,19.674051
-618,3407,-874,360,-680,16608,19.686955
-745,3563,-943,400,-608,16824,19.689678
-1568,3643,-1086,688,-76,18456,19.702643
-1765,3336,-1085,752,160,18380,19.705365
-2419,2606,-1025,1208,132,18360,19.718253
-2573,2481,-978,1328,192,18284,19.720962
-2748,2357,-883,1484,100,18208,19.723668
-3207,1643,-405,1488,52,17384,19.736621
-3244,1516,-294,1456,-16,17036,19.739327
-3020,1233,148,1304,-256,15888,19.752281
-2917,1228,216,1232,-324,15868,19.754988
-2213,1053,482,952,-568,15180,19.767911
-2015,1048,558,828,-568,14892,19.770614
-1826,1013,606,772,-760,15100,19.773318
-1035,855,725,352,-776,15240,19.786229
-960,798,712,384,-844,15192,19.788934
-651,779,697,108,-1052,15528,19.80186
-614,693,664,76,-1052,15600,19.804568
-617,733,625,52,-1100,15664,19.807274
-652,447,552,-64,-1060,15960,19.820169
-721,432,530,-120,-1112,15968,19.8229
-723,2,433,-60,-1192,15752,19.835827
-726,-41,448,-32,-1160,15724,19.838557
-674,-166,450,28,-1176,15712,19.841294
-502,-582,464,52,-1324,15452,19.854197
-463,-604,489,4,-1396,15400,19.85692
-97,-785,558,-156,-1604,15184,19.86982
-23,-892,502,-200,-1532,15196,19.872569
44,-952,545,-208,-1544,15124,19.875307
349,-1024,467,-464,-1572,14952,19.888233
432,-1001,415,-492,-1592,14960,19.890957
568,-694,259,-688,-1616,15192,19.903848
531,-646,169,-700,-1564,15296,19.906576
473,-311,-85,-820,-1588,15764,19.91953
430,-250,-151,-852,-1544,15940,19.922269
409,-268,-203,-880,-1576,16060,19.925007
176,-341,-457,-884,-1456,16368,19.937946
164,-467,-539,-868,-1408,16376,19.940684
94,-852,-723,-604,-1332,16436,19.953658
87,-864,-734,-444,-1364,16200,19.956397
70,-958,-788,-372,-1212,16212,19.959136
166,-1107,-744,-24,-1092,15900,19.972109
194,-1166,-765,40,-1092,16048,19.974848
11,-1208,-680,240,-1000,15952,19.987772
36,-1193,-675,236,-956,15904,19.990493
176,-967,-507,244,-992,15676,20.003474
204,-1028,-511,200,-1036,15684,20.006193
277,-1010,-515,204,-1088,15916,20.008918
583,-1206,-437,-88,-960,15752,20.0219
588,-1236,-442,-44,-892,15764,20.02464
730,-1227,-540,-64,-924,15920,20.037596
721,-1220,-525,16,-872,15892,20.040336
760,-1222,-521,108,-944,16100,20.043058
660,-1182,-530,268,-856,16676,20.055971
638,-1259,-521,356,-804,16656,20.058695
322,-1581,-412,420,-612,16900,20.071629
252,-1638,-371,440,-632,16892,20.074349
223,-1737,-373,476,-656,16648,20.077068
242,-1850,-260,484,-736,16116,20.089963
297,-1881,-281,472,-792,16268,20.092684
485,-2196,-226,180,-984,16024,20.105605
554,-2294,-207,232,-1040,16052,20.108325
966,-2538,-91,184,-1044,15392,20.121266
1058,-2500,-155,128,-1192,15388,20.123988
1224,-2484,-128,60,-1156,15260,20.126712
1632,-2052,-306,192,-1216,15264,20.139649
1669,-1983,-275,244,-1168,15436,20.142374
1799,-1438,-265,400,-1020,15948,20.155335
1740,-1429,-264,436,-1088,16072,20.158059
1438,-1157,-298,392,-796,16612,20.171004
1334,-1075,-270,384,-784,16680,20.173729
1298,-1047,-277,392,-776,16684,20.176454
921,-1214,-233,544,-748,17156,20.18936
819,-1242,-209,508,-752,17280,20.192083
455,-1362,-161,444,-808,17104,20.205033
343,-1306,-143,456,-972,16900,20.207757
289,-1324,-145,340,-1036,16880,20.21048
41,-1152,-247,272,-1140,16412,20.223408
-12,-1073,-262,236,-1200,16396,20.22613
-179,-708,-379,136,-1204,16116,20.239078
-191,-655,-394,84,-1176,16056,20.241818
-33,-634,-585,180,-1048,16108,20.254772
45,-693,-624,272,-1064,16136,20.257512
127,-736,-631,300,-1096,16036,20.260236
368,-1133,-598,740,-836,16184,20.273142
384,-1118,-594,816,-720,16332,20.275873
210,-1065,-422,984,-704,16412,20.288817
185,-993,-384,1004,-716,16560,20.291545
135,-945,-357,1012,-736,16484,20.294269
76,-903,-213,868,-768,16632,20.307206
102,-907,-168,784,-796,16608,20.309919
142,-1241,-136,788,-708,16496,20.322827
212,-1256,-110,864,-644,16244,20.325558
206,-1202,-105,776,-636,16292,20.328278
290,-1007,-84,736,-720,15888,20.341172
212,-913,-58,764,-724,15852,20.3439
305,-698,-105,556,-712,15828,20.356847
307,-655,-181,428,-768,15892,20.359577
459,-1045,-321,396,-648,16180,20.372537
516,-1169,-301,508,-664,16168,20.375258
523,-1304,-344,508,-628,16204,20.37798
427,-1657,-324,972,-404,16284,20.390949
383,-1635,-233,1064,-436,16100,20.393669
278,-1723,-59,1332,-524,16128,20.406608
275,-1673,8,1260,-560,16064,20.409332
280,-1714,37,1180,-632,16004,20.41204
404,-1882,214,972,-664,15816,20.424947
417,-1974,224,908,-692,15840,20.42765
516,-2258,239,644,-760,15648,20.440605
500,-2280,203,532,-800,15684,20.443312
532,-2292,180,556,-764,15656,20.446016
675,-2152,35,332,-828,15388,20.458946
721,-2083,-16,376,-844,15380,20.461649
972,-1870,-143,588,-948,15728,20.474629
1012,-1750,-175,628,-920,15784,20.477349
967,-1811,-237,636,-884,15796,20.480069
858,-1549,-232,804,-720,16280,20.492971
800,-1469,-248,880,-716,16316,20.495695
449,-1239,-205,1032,-640,16388,20.508609
396,-1183,-199,1044,-684,16464,20.511332
133,-1091,-105,1076,-664,16428,20.524287
134,-1153,-128,972,-716,16412,20.526997
114,-1169,-70,968,-728,16440,20.529718
105,-1518,-35,624,-744,16248,20.542622
130,-1569,-104,608,-684,16300,20.545346
258,-1934,-232,604,-876,16600,20.558282
282,-2012,-263,616,-812,16596,20.561005
297,-2058,-269,628,-664,16276,20.563729
494,-2224,-425,844,-716,16172,20.576664
489,-2303,-422,900,-660,16152,20.579385
604,-2491,-450,1376,-608,16136,20.592311
598,-2481,-384,1520,-524,16096,20.595033
572,-2363,-139,1856,-476,16220,20.607949
559,-2334,-84,1900,-524,16304,20.610669
455,-2290,6,1892,-444,16252,20.613394
275,-1951,221,1640,-540,15964,20.626342
288,-1919,200,1592,-516,15992,20.629049
317,-1711,227,1064,-832,15992,20.641908
329,-1677,162,1072,-864,15900,20.644611
402,-1733,159,980,-824,16016,20.647315
578,-1765,-65,800,-860,15992,20.660243
658,-1787,-114,844,-804,15856,20.662963
892,-1875,-310,1008,-768,16084,20.675859
903,-1827,-338,1080,-708,15932,20.678579
998,-1646,-382,1500,-628,16080,20.691547
977,-1631,-362,1548,-592,16140,20.69427
994,-1570,-326,1580,-540,16232,20.696992
875,-1432,-209,1872,-520,16588,20.70996
796,-1399,-207,1828,-452,16556,20.712682
592,-1495,2,1732,-460,16572,20.725588
605,-1489,44,1728,-400,16644,20.728293
551,-1525,64,1704,-472,16636,20.730997
425,-1649,118,1588,-536,16476,20.743922
416,-1723,131,1548,-548,16560,20.746629
402,-1825,125,1376,-548,16232,20.759563
407,-1854,102,1380,-580,16244,20.76227
476,-2020,-42,1204,-604,16032,20.775207
539,-2068,-100,1264,-656,15980,20.777919
556,-2026,-89,1336,-528,15904,20.780643
618,-1883,-165,1620,-672,15920,20.793622
629,-1785,-180,1576,-636,15800,20.796347
663,-1550,-131,1812,-556,15836,20.809321
676,-1525,-172,1804,-560,15872,20.812042
639,-1464,-144,1828,-572,16020,20.814771
649,-1431,-135,1852,-472,16156,20.827669
613,-1372,-78,1820,-464,16108,20.830395
451,-1381,-18,1784,-392,16312,20.843318
429,-1426,-32,1848,-380,16144,20.846041
225,-1323,-37,1652,-460,16216,20.858989
239,-1353,-48,1668,-444,16204,20.861712
196,-1382,-59,1728,-456,16192,20.864437
214,-1304,-17,1696,-512,16024,20.877379
237,-1331,-25,1684,-484,15948,20.880102
241,-1248,-119,1668,-568,15904,20.893001
236,-1221,-115,1684,-520,15872,20.895721
239,-1200,-155,1696,-488,15836,20.898445
260,-1045,-213,1776,-444,15832,20.911342
320,-1032,-205,1832,-384,15700,20.914066
455,-975,-123,1976,-384,15720,20.926953
428,-930,-131,1976,-384,15596,20.929676
608,-756,-98,1712,-436,15664,20.942611
656,-731,-80,1632,-432,15648,20.945331
654,-652,-121,1612,-428,15772,20.948051
751,-583,-175,1560,-496,15840,20.960979
759,-553,-140,1516,-536,15948,20.963701
796,-609,-274,1312,-588,16364,20.976608
738,-623,-286,1312,-592,16568,20.979331
693,-767,-343,1300,-508,16544,20.982051
400,-1112,-446,1392,-320,16720,20.99496
360,-1178,-465,1456,-236,16644,20.997684
7,-1407,-513,1652,-268,16592,21.010655
-38,-1424,-478,1684,-300,16388,21.013377
-194,-1359,-488,1928,-248,16260,21.026331
-175,-1310,-473,1940,-220,16144,21.029069
-146,-1336,-449,2012,-172,16128,21.031807
-71,-1255,-269,2028,-132,15872,21.044732
31,-1248,-255,2084,-284,15920,21.047473
263,-1044,-197,2024,-344,15660,21.060381
329,-1004,-127,1968,-440,15700,21.063102
561,-765,-119,1824,-540,15840,21.076067
596,-748,-99,1812,-628,15872,21.078793
613,-730,-126,1728,-628,15924,21.081523
463,-769,-224,1588,-488,16224,21.094459
456,-808,-238,1608,-496,16236,21.097181
342,-888,-320,1632,-616,16340,21.110112
356,-872,-320,1660,-592,16308,21.112835
304,-857,-333,1664,-592,16272,21.115562
215,-1002,-399,1836,-456,16216,21.128504
266,-1044,-391,1856,-388,16328,21.131229
307,-1192,-388,1920,-364,16148,21.144177
324,-1136,-382,1872,-344,16176,21.146901
487,-1260,-382,1944,-504,16156,21.159832
550,-1232,-390,1992,-436,15996,21.16256
571,-1261,-422,1944,-452,16060,21.165284
605,-1207,-429,2040,-456,15988,21.178236
649,-1168,-404,1964,-460,16128,21.180961
762,-1083,-443,1896,-504,16208,21.193867
